rt,response,participant_id,trial_index,task_1,cue_1_dur,congruency,task_switch,or_switch,mov_switch
0.8869090000003343,1.0,4.0,0.0,or,2970.0,1,1,0,0
1.1720320000003557,1.0,4.0,1.0,mov,2970.0,1,1,0,0
1.6123320000004022,1.0,4.0,2.0,mov,2970.0,0,0,1,0
1.4973320000005206,1.0,4.0,3.0,mov,2970.0,1,0,1,0
0.9235550000001675,1.0,4.0,4.0,or,2970.0,0,1,1,0
1.003155000000028,1.0,4.0,5.0,or,2970.0,0,0,1,1
0.7516550000001444,1.0,4.0,6.0,or,2970.0,0,0,0,0
0.7280889999998035,1.0,4.0,7.0,or,2970.0,1,0,1,0
1.0621890000005951,1.0,4.0,8.0,mov,2970.0,0,1,1,0
0.8116889999997802,1.0,4.0,9.0,mov,2970.0,1,0,0,1
0.8333119999998017,-1.0,4.0,10.0,or,2970.0,0,1,0,1
1.8208120000000343,1.0,4.0,11.0,mov,2970.0,1,1,1,0
1.2321119999999646,1.0,4.0,12.0,or,2970.0,1,1,0,0
1.853234999999986,1.0,4.0,13.0,mov,2970.0,0,1,1,0
0.8980459999998566,1.0,4.0,14.0,mov,2970.0,0,0,0,0
0.854045999999973,1.0,4.0,15.0,or,2970.0,1,1,0,1
0.8586689999999945,1.0,4.0,16.0,or,2970.0,1,0,1,1
1.2296690000002273,1.0,4.0,17.0,mov,2970.0,1,1,0,0
0.7227689999999711,1.0,4.0,18.0,mov,2970.0,1,0,1,1
0.9443919999999926,1.0,4.0,19.0,or,2970.0,1,1,0,0
1.1483920000002257,1.0,4.0,20.0,mov,2970.0,0,1,0,1
1.2537029999999796,-1.0,4.0,21.0,or,2970.0,0,1,0,0
0.892326000000001,1.0,4.0,22.0,or,2970.0,1,0,0,1
0.7394259999998612,1.0,4.0,23.0,or,2970.0,1,0,1,1
1.6647259999997914,1.0,4.0,24.0,mov,2970.0,0,1,0,1
1.4373489999998128,1.0,4.0,25.0,mov,2970.0,1,0,1,0
1.3533490000000457,1.0,4.0,26.0,or,2970.0,0,1,0,1
1.0321489999999611,1.0,4.0,27.0,mov,2970.0,1,1,0,1
1.162372000000556,-1.0,4.0,28.0,mov,2970.0,0,0,0,1
1.0033830000005983,1.0,4.0,29.0,mov,2970.0,0,0,0,0
0.8066830000005429,1.0,4.0,30.0,or,2970.0,1,1,1,0
0.9153060000005644,1.0,4.0,31.0,mov,2970.0,1,1,0,0
0.9290060000000376,1.0,4.0,32.0,or,2970.0,1,1,1,1
0.9040060000001686,1.0,4.0,33.0,mov,2970.0,1,1,0,0
0.8658290000003762,1.0,4.0,34.0,mov,2970.0,1,0,1,1
0.761929000000222,1.0,4.0,35.0,mov,2970.0,1,0,0,0
0.6558400000005641,1.0,4.0,36.0,mov,2970.0,1,0,1,1
0.7732630000003701,1.0,4.0,37.0,mov,2970.0,1,0,1,1
0.6403630000001285,1.0,4.0,38.0,mov,2970.0,1,0,0,0
1.1064630000000033,-1.0,4.0,39.0,or,2970.0,0,1,0,1
0.7377860000001966,1.0,4.0,40.0,or,2970.0,0,0,0,0
0.9441859999998704,1.0,4.0,41.0,mov,2970.0,1,1,0,1
0.8043860000001732,1.0,4.0,42.0,or,2970.0,1,1,0,0
1.078509000000195,1.0,4.0,43.0,mov,2970.0,0,1,0,1
0.8645200000001351,1.0,4.0,44.0,or,2970.0,1,1,0,1
1.623919999999809,1.0,4.0,45.0,or,2970.0,0,0,0,1
0.9909430000002032,1.0,4.0,46.0,mov,2970.0,1,1,1,0
0.7094430000003195,1.0,4.0,47.0,mov,2970.0,1,0,0,0
0.9876429999998072,1.0,4.0,48.0,or,2970.0,1,1,0,0
0.6222659999998287,1.0,4.0,49.0,or,2970.0,1,0,0,0
0.9383660000006204,-1.0,4.0,50.0,or,2970.0,0,0,0,1
0.7035769999998156,1.0,4.0,51.0,or,2970.0,0,0,0,0
0.7263000000002794,1.0,4.0,52.0,or,2970.0,1,0,0,1
0.8608000000005123,1.0,4.0,53.0,mov,2970.0,1,1,1,1
1.2347000000001862,1.0,4.0,54.0,mov,2970.0,0,0,1,0
0.8004229999997479,1.0,4.0,55.0,mov,2970.0,0,0,1,1
1.364123000000138,1.0,4.0,56.0,or,2970.0,0,1,1,1
0.8464230000001844,1.0,4.0,57.0,or,2970.0,1,0,1,0
0.902757000000216,1.0,4.0,58.0,mov,2970.0,1,1,1,1
0.6730570000002626,1.0,4.0,59.0,mov,2970.0,1,0,0,0
1.3923570000000765,1.0,4.0,60.0,mov,2970.0,0,0,0,1
0.7474800000002142,1.0,4.0,61.0,mov,2970.0,0,0,1,1
0.7403799999998882,1.0,4.0,62.0,mov,2970.0,0,0,0,0
0.8430800000000745,1.0,4.0,63.0,mov,2970.0,0,0,1,1
0.8237030000001833,-1.0,4.0,64.0,or,2970.0,0,1,0,0
1.0122030000004452,1.0,4.0,65.0,or,2970.0,0,0,1,1
1.1365140000001992,1.0,4.0,66.0,mov,2970.0,1,1,0,1
1.1077369999997315,1.0,4.0,67.0,or,2970.0,1,1,1,1
1.4405369999997784,1.0,4.0,68.0,or,2970.0,0,0,0,1
0.9972370000001974,1.0,4.0,69.0,mov,2970.0,1,1,1,0
1.095760000000475,1.0,4.0,70.0,mov,2970.0,0,0,1,0
0.957160000000149,1.0,4.0,71.0,or,2970.0,1,1,1,0
1.8396600000003815,1.0,4.0,72.0,or,2970.0,1,0,1,1
1.127094000000041,1.0,4.0,73.0,or,2970.0,0,0,1,0
1.00229400000046,1.0,4.0,74.0,mov,2970.0,1,1,1,0
0.7496939999999304,1.0,4.0,75.0,or,2970.0,1,1,1,1
0.729417000000598,1.0,4.0,76.0,or,2970.0,1,0,0,0
0.8312170000006445,-1.0,4.0,77.0,or,2970.0,0,0,0,1
1.2142169999997423,1.0,4.0,78.0,mov,2970.0,0,1,0,0
1.1064400000004098,1.0,4.0,79.0,or,2970.0,1,1,0,1
1.4000079999999142,-1.0,4.0,0.0,mov,2970.0,0,1,0,1
0.7182310000006109,1.0,4.0,1.0,or,2970.0,1,1,0,1
0.8697309999999124,1.0,4.0,2.0,or,2970.0,1,0,1,1
1.7257309999999142,1.0,4.0,3.0,or,2970.0,0,0,0,1
0.911454000000609,1.0,4.0,4.0,or,2970.0,0,0,1,1
0.6535650000001769,1.0,4.0,5.0,or,2970.0,1,0,0,1
1.370665000000037,1.0,4.0,6.0,mov,2970.0,1,1,0,0
0.9964880000001284,1.0,4.0,7.0,mov,2970.0,0,0,0,1
0.8875879999999888,1.0,4.0,8.0,or,2970.0,0,1,0,0
0.6510880000002216,1.0,4.0,9.0,or,2970.0,1,0,1,0
1.0378109999997542,1.0,4.0,10.0,mov,2970.0,0,1,0,1
1.0316109999998009,1.0,4.0,11.0,or,2970.0,0,1,0,0
0.6993110000002198,1.0,4.0,12.0,or,2970.0,1,0,1,0
1.010045000000624,1.0,4.0,13.0,mov,2970.0,1,1,1,1
1.1416450000004843,1.0,4.0,14.0,mov,2970.0,0,0,0,1
0.9388449999997392,1.0,4.0,15.0,or,2970.0,0,1,1,1
0.975568000000436,1.0,4.0,16.0,mov,2970.0,1,1,1,0
1.0232679999999237,1.0,4.0,17.0,mov,2970.0,0,0,0,1
1.1668680000004823,1.0,4.0,18.0,mov,2970.0,0,0,1,1
1.0996909999998752,1.0,4.0,19.0,or,2970.0,1,1,1,0
1.0115020000005606,1.0,4.0,20.0,mov,2970.0,1,1,0,0
0.9396020000004208,1.0,4.0,21.0,or,2970.0,1,1,0,0
1.0699250000005125,1.0,4.0,22.0,mov,2970.0,1,1,0,0
0.909125,1.0,4.0,23.0,or,2970.0,1,1,0,0
0.776325000000419,1.0,4.0,24.0,or,2970.0,1,0,1,1
0.7960479999999516,1.0,4.0,25.0,or,2970.0,1,0,1,1
0.6392480000003706,1.0,4.0,26.0,or,2970.0,1,0,1,1
0.988447999999873,1.0,4.0,27.0,mov,2970.0,1,1,0,0
0.9718820000004488,1.0,4.0,28.0,or,2970.0,0,1,0,1
0.7164820000000763,1.0,4.0,29.0,or,2970.0,0,0,0,0
0.8765819999999367,1.0,4.0,30.0,mov,2970.0,1,1,0,1
1.0297050000010055,1.0,4.0,31.0,mov,2970.0,1,0,0,0
0.870105000000447,1.0,4.0,32.0,or,2970.0,1,1,1,1
1.030505000000121,1.0,4.0,33.0,mov,2970.0,0,1,0,1
0.9005280000006315,1.0,4.0,34.0,mov,2970.0,1,0,1,0
0.7723389999994542,1.0,4.0,35.0,mov,2970.0,1,0,1,1
1.440739000000991,1.0,4.0,36.0,or,2970.0,0,1,0,1
0.8178620000009105,1.0,4.0,37.0,mov,2970.0,1,1,1,0
1.06276200000057,1.0,4.0,38.0,or,2970.0,0,1,0,1
0.7312619999998715,1.0,4.0,39.0,mov,2970.0,1,1,0,1
1.3003849999997763,1.0,4.0,40.0,or,2970.0,0,1,1,0
0.8939850000005681,1.0,4.0,41.0,or,2970.0,0,0,1,1
1.0951959999997634,-1.0,4.0,42.0,mov,2970.0,0,1,0,0
0.9711190000006464,1.0,4.0,43.0,mov,2970.0,1,0,1,0
0.9645190000000876,1.0,4.0,44.0,or,2970.0,0,1,1,0
1.052119000000879,1.0,4.0,45.0,or,2970.0,0,0,0,0
1.584742000001017,1.0,4.0,46.0,mov,2970.0,0,1,1,1
1.1674419999993406,1.0,4.0,47.0,or,2970.0,0,1,1,1
0.8300420000001323,1.0,4.0,48.0,mov,2970.0,1,1,1,0
0.7530650000006426,1.0,4.0,49.0,or,2970.0,1,1,1,1
0.9013759999994654,1.0,4.0,50.0,or,2970.0,0,0,1,0
0.956175999999512,1.0,4.0,51.0,mov,2970.0,1,1,1,0
1.433899000000907,-1.0,4.0,52.0,mov,2970.0,0,0,0,1
1.9091990000009535,1.0,4.0,53.0,mov,2970.0,0,0,1,1
0.948199000000226,1.0,4.0,54.0,or,2970.0,1,1,0,1
1.1994219999997875,1.0,4.0,55.0,mov,2970.0,0,1,1,0
0.8399220000009519,1.0,4.0,56.0,or,2970.0,0,1,0,0
1.096933000000892,1.0,4.0,57.0,or,2970.0,0,0,1,1
1.47705600000103,1.0,4.0,58.0,mov,2970.0,0,1,0,0
1.2519560000004712,1.0,4.0,59.0,or,2970.0,1,1,0,1
0.7678560000001744,-1.0,4.0,60.0,mov,2970.0,1,1,1,1
0.7725789999999106,1.0,4.0,61.0,or,2970.0,1,1,1,1
0.9952790000000968,1.0,4.0,62.0,mov,2970.0,1,1,1,1
0.762479000000545,1.0,4.0,63.0,mov,2970.0,1,0,0,0
0.851713000000891,1.0,4.0,64.0,mov,2970.0,1,0,1,1
0.7318129999998783,1.0,4.0,65.0,mov,2970.0,1,0,0,0
1.0369130000006408,-1.0,4.0,66.0,mov,2970.0,0,0,1,0
0.9609360000009184,1.0,4.0,67.0,mov,2970.0,0,0,0,0
0.9348360000006214,1.0,4.0,68.0,or,2970.0,0,1,1,1
1.2619359999995212,1.0,4.0,69.0,mov,2970.0,0,1,1,1
0.8476590000009164,1.0,4.0,70.0,mov,2970.0,0,0,0,0
0.8275590000006195,1.0,4.0,71.0,or,2970.0,1,1,1,0
1.0794700000009034,-1.0,4.0,72.0,or,2970.0,0,0,0,1
0.8676930000006687,1.0,4.0,73.0,or,2970.0,0,0,0,0
1.04559300000011,1.0,4.0,74.0,mov,2970.0,0,1,0,0
1.281793000000529,1.0,4.0,75.0,or,2970.0,0,1,0,0
0.9404160000006668,1.0,4.0,76.0,or,2970.0,1,0,1,0
0.8504159999997355,1.0,4.0,77.0,mov,2970.0,1,1,1,1
1.8323159999994096,1.0,4.0,78.0,or,2970.0,0,1,1,0
1.4244500000001863,1.0,4.0,79.0,mov,2970.0,0,1,0,0
1.0711530000008642,1.0,4.0,0.0,mov,2970.0,1,0,0,1
1.0528760000006296,1.0,4.0,1.0,mov,2970.0,0,0,0,1
0.5858759999996983,1.0,4.0,2.0,or,2970.0,1,1,1,0
0.8600760000001173,1.0,4.0,3.0,mov,2970.0,1,1,1,1
0.7210990000006278,1.0,4.0,4.0,mov,2970.0,1,0,1,1
0.8844990000003018,1.0,4.0,5.0,mov,2970.0,0,0,0,1
0.797699000000488,1.0,4.0,6.0,or,2970.0,0,1,1,1
0.6704330000008922,1.0,4.0,7.0,or,2970.0,0,0,1,1
0.9277330000009388,1.0,4.0,8.0,mov,2970.0,0,1,1,1
0.8228329999998677,1.0,4.0,9.0,mov,2970.0,1,0,1,0
0.6618560000001453,1.0,4.0,10.0,or,2970.0,1,1,1,1
0.9820560000005644,1.0,4.0,11.0,or,2970.0,0,0,0,1
0.9319560000002384,1.0,4.0,12.0,or,2970.0,0,0,0,0
0.7590790000001434,1.0,4.0,13.0,or,2970.0,1,0,1,0
0.7427899999993388,1.0,4.0,14.0,or,2970.0,0,0,1,0
0.883290000000503,1.0,4.0,15.0,mov,2970.0,1,1,0,1
0.9129130000006408,1.0,4.0,16.0,or,2970.0,0,1,1,0
1.343813000000082,1.0,4.0,17.0,mov,2970.0,0,1,1,1
1.1511130000001286,1.0,4.0,18.0,mov,2970.0,0,0,1,1
0.9383359999998938,1.0,4.0,19.0,or,2970.0,1,1,0,1
0.888235999999335,1.0,4.0,20.0,mov,2970.0,1,1,0,0
1.6383360000001266,1.0,4.0,21.0,mov,2970.0,0,0,0,1
0.8716700000001584,1.0,4.0,22.0,mov,2970.0,1,0,0,1
0.6999700000002049,1.0,4.0,23.0,mov,2970.0,1,0,0,0
0.8484699999995065,-1.0,4.0,24.0,mov,2970.0,0,0,1,0
0.827293000000529,1.0,4.0,25.0,mov,2970.0,1,0,1,0
0.8600930000005755,1.0,4.0,26.0,or,2970.0,1,1,1,1
0.9196929999995044,1.0,4.0,27.0,or,2970.0,0,0,1,0
1.3624160000008996,1.0,4.0,28.0,mov,2970.0,0,1,0,0
0.7585270000004676,1.0,4.0,29.0,or,2970.0,1,1,1,0
0.920026999999769,1.0,4.0,30.0,mov,2970.0,0,1,1,0
0.8687499999995343,1.0,4.0,31.0,mov,2970.0,0,0,0,0
1.1112500000004657,1.0,4.0,32.0,mov,2970.0,0,0,1,1
0.7557499999997672,1.0,4.0,33.0,mov,2970.0,1,0,0,1
0.6587730000002775,1.0,4.0,34.0,mov,2970.0,1,0,0,0
0.9398730000008364,-1.0,4.0,35.0,or,2970.0,0,1,1,0
1.3198730000001375,-1.0,4.0,36.0,or,2970.0,0,0,0,0
0.8305070000009146,1.0,4.0,37.0,mov,2970.0,1,1,1,0
0.8243070000009611,1.0,4.0,38.0,or,2970.0,1,1,1,1
1.6242070000006206,1.0,4.0,39.0,mov,2970.0,0,1,0,1
0.8612300000009127,1.0,4.0,40.0,mov,2970.0,1,0,1,0
0.9828299999998416,1.0,4.0,41.0,mov,2970.0,0,0,0,1
1.0414300000006331,1.0,4.0,42.0,or,2970.0,0,1,1,1
0.8747529999997933,1.0,4.0,43.0,or,2970.0,0,0,1,1
1.1017639999997335,1.0,4.0,44.0,or,2970.0,0,0,0,0
0.7444640000001528,1.0,4.0,45.0,or,2970.0,1,0,1,0
1.009487000000663,1.0,4.0,46.0,mov,2970.0,0,1,1,0
0.7748870000001044,1.0,4.0,47.0,mov,2970.0,1,0,0,1
0.9373869999994058,1.0,4.0,48.0,or,2970.0,1,1,0,0
0.6778100000002887,1.0,4.0,49.0,or,2970.0,1,0,0,0
1.04620999999973,1.0,4.0,50.0,mov,2970.0,0,1,1,0
0.6726210000002757,1.0,4.0,51.0,mov,2970.0,0,0,0,0
0.6749439999994357,1.0,4.0,52.0,mov,2970.0,1,0,1,0
1.1749440000005995,1.0,4.0,53.0,or,2970.0,0,1,0,1
0.9800439999995578,1.0,4.0,54.0,mov,2970.0,1,1,1,0
0.6114670000001788,1.0,4.0,55.0,mov,2970.0,1,0,0,0
0.7799669999994803,1.0,4.0,56.0,or,2970.0,1,1,0,0
0.7169670000006736,1.0,4.0,57.0,mov,2970.0,0,1,1,0
0.6857899999998044,-1.0,4.0,58.0,or,2970.0,0,1,1,1
0.8066010000005189,1.0,4.0,59.0,or,2970.0,1,0,1,0
0.985501000000164,1.0,4.0,60.0,or,2970.0,0,0,1,0
0.7388239999995567,-1.0,4.0,61.0,mov,2970.0,1,1,1,0
0.8674240000001446,1.0,4.0,62.0,or,2970.0,1,1,0,0
0.8453239999997895,1.0,4.0,63.0,or,2970.0,1,0,0,0
0.6404469999999274,-1.0,4.0,64.0,mov,2970.0,1,1,1,1
1.4305470000005152,1.0,4.0,65.0,or,2970.0,0,1,0,1
0.8424580000010319,1.0,4.0,66.0,or,2970.0,1,0,0,1
0.7753809999998484,1.0,4.0,67.0,mov,2970.0,1,1,1,1
0.8610810000002093,1.0,4.0,68.0,or,2970.0,1,1,1,1
1.0514809999999124,1.0,4.0,69.0,mov,2970.0,1,1,0,0
1.111004000000219,1.0,4.0,70.0,or,2970.0,0,1,0,1
1.1188040000002075,1.0,4.0,71.0,mov,2970.0,1,1,0,1
0.914303999999538,1.0,4.0,72.0,or,2970.0,0,1,1,0
0.9868269999998156,1.0,4.0,73.0,mov,2970.0,0,1,0,0
0.8487380000001286,1.0,4.0,74.0,mov,2970.0,0,0,1,1
0.8286379999998026,1.0,4.0,75.0,mov,2970.0,0,0,1,1
0.7315610000004817,1.0,4.0,76.0,or,2970.0,1,1,0,1
0.8929610000001267,1.0,4.0,77.0,mov,2970.0,1,1,0,0
1.273960999999428,-1.0,4.0,78.0,mov,2970.0,0,0,1,0
0.7109839999997057,1.0,4.0,79.0,or,2970.0,1,1,0,1
0.722901999999769,1.0,4.0,0.0,or,2970.0,1,0,1,1
1.311012999999337,1.0,4.0,1.0,mov,2970.0,0,1,1,0
0.966712999999756,1.0,4.0,2.0,mov,2970.0,0,0,1,1
0.8811360000006371,1.0,4.0,3.0,mov,2970.0,1,0,1,0
0.7852359999993369,1.0,4.0,4.0,or,2970.0,1,1,0,0
0.9326360000008718,1.0,4.0,5.0,mov,2970.0,0,1,1,0
0.958359000000637,1.0,4.0,6.0,mov,2970.0,1,0,0,1
1.1246590000004508,1.0,4.0,7.0,mov,2970.0,0,0,1,0
0.8020700000009928,1.0,4.0,8.0,mov,2970.0,0,0,1,1
0.9603930000001564,1.0,4.0,9.0,or,2970.0,0,1,0,0
0.7618929999994579,1.0,4.0,10.0,or,2970.0,1,0,0,1
0.8155929999998771,1.0,4.0,11.0,mov,2970.0,1,1,0,0
0.6877159999997821,1.0,4.0,12.0,mov,2970.0,1,0,0,0
0.8640159999998286,1.0,4.0,13.0,mov,2970.0,0,0,0,1
0.6813159999998752,1.0,4.0,14.0,mov,2970.0,1,0,0,1
0.6678500000010245,1.0,4.0,15.0,mov,2970.0,1,0,0,0
0.931049999999348,1.0,4.0,16.0,or,2970.0,0,1,1,0
1.1015500000005125,1.0,4.0,17.0,or,2970.0,0,0,0,0
0.8784729999995324,1.0,4.0,18.0,mov,2970.0,1,1,0,1
1.2893730000008363,-1.0,4.0,19.0,mov,2970.0,0,0,1,0
0.9391730000008828,1.0,4.0,20.0,or,2970.0,0,1,1,1
0.8619960000002757,1.0,4.0,21.0,mov,2970.0,0,1,0,0
0.7282960000000894,1.0,4.0,22.0,mov,2970.0,0,0,0,0
0.8695069999995175,1.0,4.0,23.0,mov,2970.0,1,0,1,0
0.8982300000009127,1.0,4.0,24.0,or,2970.0,1,1,1,1
0.7693299999998416,1.0,4.0,25.0,mov,2970.0,1,1,1,1
0.9697299999995156,1.0,4.0,26.0,or,2970.0,0,1,0,1
0.9973529999994208,1.0,4.0,27.0,mov,2970.0,0,1,1,1
0.7218530000005994,1.0,4.0,28.0,or,2970.0,1,1,1,0
0.9883529999998864,1.0,4.0,29.0,or,2970.0,0,0,0,1
0.6845870000003051,1.0,4.0,30.0,mov,2970.0,1,1,1,0
0.6225869999993593,1.0,4.0,31.0,mov,2970.0,1,0,0,0
0.8598869999994058,1.0,4.0,32.0,or,2970.0,0,1,0,1
0.8606100000010337,1.0,4.0,33.0,or,2970.0,0,0,0,0
0.7627099999997299,1.0,4.0,34.0,mov,2970.0,1,1,0,1
0.8125099999997765,1.0,4.0,35.0,or,2970.0,0,1,0,1
0.7483330000010319,-1.0,4.0,36.0,mov,2970.0,0,1,1,1
1.6111330000008457,1.0,4.0,37.0,mov,2970.0,0,0,1,1
0.8824439999998868,1.0,4.0,38.0,or,2970.0,0,1,0,0
1.4568670000005512,1.0,4.0,39.0,mov,2970.0,0,1,1,1
0.8441670000005979,1.0,4.0,40.0,or,2970.0,1,1,1,0
1.0486669999998994,1.0,4.0,41.0,mov,2970.0,0,1,1,0
0.8213899999994319,1.0,4.0,42.0,or,2970.0,1,1,0,1
0.864089999999851,1.0,4.0,43.0,mov,2970.0,1,1,0,0
0.8001900000006427,1.0,4.0,44.0,or,2970.0,1,1,0,0
0.7278239999995567,1.0,4.0,45.0,or,2970.0,1,0,0,0
0.620824000000488,1.0,4.0,46.0,or,2970.0,1,0,1,1
0.6098239999997895,1.0,4.0,47.0,or,2970.0,1,0,0,0
0.5503470000002999,1.0,4.0,48.0,or,2970.0,1,0,0,0
0.8115470000004862,1.0,4.0,49.0,mov,2970.0,1,1,1,1
0.7076469999994152,1.0,4.0,50.0,or,2970.0,1,1,0,0
0.8316699999999255,1.0,4.0,51.0,or,2970.0,0,0,1,0
1.009680999999866,1.0,4.0,52.0,mov,2970.0,1,1,1,0
0.701381000000285,1.0,4.0,53.0,or,2970.0,1,1,1,1
1.1579040000005625,1.0,4.0,54.0,or,2970.0,1,0,1,1
0.7687040000006091,1.0,4.0,55.0,mov,2970.0,1,1,1,1
0.6070040000006266,1.0,4.0,56.0,or,2970.0,1,1,1,1
0.8541270000005606,1.0,4.0,57.0,or,2970.0,0,0,1,0
0.6954270000006072,1.0,4.0,58.0,mov,2970.0,1,1,1,0
0.9501270000009971,1.0,4.0,59.0,mov,2970.0,0,0,0,1
0.8945610000004818,1.0,4.0,60.0,or,2970.0,0,1,0,0
1.0879610000000977,1.0,4.0,61.0,mov,2970.0,0,1,1,1
0.6958609999998007,1.0,4.0,62.0,mov,2970.0,1,0,0,1
0.5437840000004508,1.0,4.0,63.0,mov,2970.0,1,0,0,0
0.9217839999999852,-1.0,4.0,64.0,mov,2970.0,0,0,1,0
0.7849840000001713,1.0,4.0,65.0,mov,2970.0,1,0,1,0
0.8177069999999367,1.0,4.0,66.0,or,2970.0,1,1,0,0
0.8352179999998771,1.0,4.0,67.0,or,2970.0,0,0,1,0
0.6844180000000634,1.0,4.0,68.0,or,2970.0,1,0,0,1
1.1011409999997996,1.0,4.0,69.0,mov,2970.0,0,1,1,0
0.91254099999927,1.0,4.0,70.0,or,2970.0,0,1,0,0
0.8994410000010393,1.0,4.0,71.0,mov,2970.0,0,1,0,0
0.7123639999995648,1.0,4.0,72.0,mov,2970.0,1,0,0,1
0.6105640000002459,1.0,4.0,73.0,or,2970.0,1,1,1,1
1.0306640000008047,1.0,4.0,74.0,or,2970.0,0,0,0,1
0.9009980000010984,1.0,4.0,75.0,mov,2970.0,0,1,0,0
0.6823980000005103,1.0,4.0,76.0,mov,2970.0,0,0,0,0
0.7138980000000447,1.0,4.0,77.0,mov,2970.0,0,0,0,0
0.934520999999746,1.0,4.0,78.0,or,2970.0,0,1,1,1
0.7058209999999963,1.0,4.0,79.0,or,2970.0,1,0,1,0
1.3518000000000463,1.0,8.0,0.0,mov,2800.0,1,1,0,0
1.3627999999285676,1.0,8.0,1.0,or,2800.0,1,1,0,0
1.545600000023842,1.0,8.0,2.0,mov,2800.0,0,1,1,0
1.679699999952223,1.0,8.0,3.0,mov,2800.0,1,0,1,0
1.942300000023795,1.0,8.0,4.0,or,2800.0,1,1,1,1
1.926399999928428,1.0,8.0,5.0,mov,2800.0,0,1,1,0
1.1608000000000465,1.0,8.0,6.0,mov,2800.0,1,0,0,1
1.6199999999999963,1.0,8.0,7.0,or,2800.0,1,1,1,1
1.7106000000238382,1.0,8.0,8.0,or,2800.0,0,0,1,0
1.4281999999999535,1.0,8.0,9.0,mov,2800.0,0,1,1,1
1.1269999999762512,1.0,8.0,10.0,mov,2800.0,1,0,0,1
1.2324999999285209,1.0,8.0,11.0,mov,2800.0,0,0,1,0
1.009999999928521,1.0,8.0,12.0,mov,2800.0,0,0,1,1
1.532499999928521,1.0,8.0,13.0,or,2800.0,0,1,0,0
1.3091000000238415,1.0,8.0,14.0,mov,2800.0,0,1,0,0
1.6197999999523165,1.0,8.0,15.0,mov,2800.0,0,0,1,1
1.6231999999999531,1.0,8.0,16.0,or,2800.0,0,1,1,1
1.7568000000000463,1.0,8.0,17.0,or,2800.0,1,0,1,0
1.0625999999283813,1.0,8.0,18.0,or,2800.0,1,0,0,0
1.3954000000238884,1.0,8.0,19.0,or,2800.0,0,0,1,0
1.1419999999522696,1.0,8.0,20.0,mov,2800.0,1,1,0,1
1.4069999999762512,1.0,8.0,21.0,or,2800.0,0,1,1,0
1.0791999999762047,1.0,8.0,22.0,or,2800.0,1,0,0,1
0.980299999976065,1.0,8.0,23.0,or,2800.0,1,0,0,0
1.1891999999522378,1.0,8.0,24.0,mov,2800.0,0,1,1,0
0.9618999999999214,1.0,8.0,25.0,or,2800.0,1,1,1,0
1.2101000000000786,1.0,8.0,26.0,mov,2800.0,0,1,0,1
1.127300000000032,1.0,8.0,27.0,mov,2800.0,1,0,0,1
1.6140999999761116,1.0,8.0,28.0,or,2800.0,0,1,0,1
1.319499999976237,1.0,8.0,29.0,or,2800.0,1,0,1,0
1.238,1.0,8.0,30.0,or,2800.0,1,0,1,1
1.256399999928428,1.0,8.0,31.0,or,2800.0,1,0,1,1
1.2696000000000789,1.0,8.0,32.0,mov,2800.0,0,1,1,0
1.384400000023874,1.0,8.0,33.0,or,2800.0,0,1,1,1
1.2346000000000783,1.0,8.0,34.0,or,2800.0,0,0,0,0
1.2496999999762046,1.0,8.0,35.0,mov,2800.0,1,1,1,0
1.101100000000064,1.0,8.0,36.0,mov,2800.0,1,0,1,1
1.3836999999762047,1.0,8.0,37.0,or,2800.0,1,1,0,0
1.5883000000237952,1.0,8.0,38.0,mov,2800.0,0,1,0,1
1.1050999999523627,1.0,8.0,39.0,or,2800.0,1,1,0,1
1.2871999999284744,1.0,8.0,40.0,mov,2800.0,1,1,0,0
1.3363999999523803,1.0,8.0,41.0,mov,2800.0,0,0,1,0
1.5360999999761116,1.0,8.0,42.0,or,2800.0,0,1,0,0
1.1460999999761117,1.0,8.0,43.0,mov,2800.0,1,1,1,0
1.2388999999284278,1.0,8.0,44.0,or,2800.0,0,1,1,0
1.3194000000238884,1.0,8.0,45.0,or,2800.0,1,0,0,1
1.7524999999522697,1.0,8.0,46.0,or,2800.0,1,0,1,1
1.120200000023906,1.0,8.0,47.0,or,2800.0,1,0,0,0
1.079600000023842,1.0,8.0,48.0,or,2800.0,0,0,0,1
1.254399999976158,1.0,8.0,49.0,or,2800.0,1,0,1,0
1.722599999952363,1.0,8.0,50.0,or,2800.0,0,0,0,1
1.2247999999285384,1.0,8.0,51.0,mov,2800.0,1,1,0,1
1.1870999999283811,1.0,8.0,52.0,mov,2800.0,1,0,1,1
1.0868000000000466,1.0,8.0,53.0,or,2800.0,1,1,1,1
1.2781999999999534,1.0,8.0,54.0,mov,2800.0,1,1,1,1
1.4464999999762225,1.0,8.0,55.0,or,2800.0,0,1,0,1
1.6706999999762049,1.0,8.0,56.0,mov,2800.0,1,1,1,0
1.2700000000237488,1.0,8.0,57.0,mov,2800.0,0,0,0,1
1.2384999999522697,1.0,8.0,58.0,or,2800.0,0,1,0,0
1.087700000023906,1.0,8.0,59.0,mov,2800.0,1,1,0,1
1.486799999976065,1.0,8.0,60.0,or,2800.0,0,1,0,1
1.4912999999285383,1.0,8.0,61.0,or,2800.0,1,0,1,0
1.1705000000237489,1.0,8.0,62.0,mov,2800.0,1,1,1,1
1.4025999999761116,1.0,8.0,63.0,or,2800.0,1,1,0,0
0.998,1.0,8.0,64.0,mov,2800.0,1,1,0,0
1.6349000000238885,-1.0,8.0,65.0,mov,2800.0,0,0,1,0
1.3538000000000463,1.0,8.0,66.0,or,2800.0,1,1,0,1
1.265999999976222,1.0,8.0,67.0,or,2800.0,1,0,1,1
1.0418000000000465,1.0,8.0,68.0,mov,2800.0,1,1,1,1
1.1468000000237952,1.0,8.0,69.0,or,2800.0,1,1,0,0
1.6661999999762047,1.0,8.0,70.0,mov,2800.0,0,1,0,1
1.3395999999761117,1.0,8.0,71.0,mov,2800.0,0,0,1,1
1.3159000000238883,1.0,8.0,72.0,mov,2800.0,0,0,1,1
0.8655,1.0,8.0,73.0,mov,2800.0,0,0,0,0
0.9716000000000932,1.0,8.0,74.0,mov,2800.0,1,0,0,1
1.9648000000000465,1.0,8.0,75.0,or,2800.0,1,1,1,1
1.402600000000093,1.0,8.0,76.0,or,2800.0,0,0,1,0
0.957200000023935,1.0,8.0,77.0,or,2800.0,0,0,0,0
1.0470999999761117,1.0,8.0,78.0,or,2800.0,1,0,0,1
0.9027999999523164,1.0,8.0,79.0,or,2800.0,1,0,0,0
1.2145999999761117,1.0,8.0,0.0,mov,2800.0,1,1,0,0
0.8514000000238884,1.0,8.0,1.0,mov,2800.0,1,0,0,0
0.850700000023935,1.0,8.0,2.0,mov,2800.0,1,0,0,0
1.4684999999762494,1.0,8.0,3.0,or,2800.0,0,1,0,1
1.586700000023933,1.0,8.0,4.0,or,2800.0,0,0,1,1
1.0604000000238885,1.0,8.0,5.0,or,2800.0,0,0,0,0
0.987399999976158,1.0,8.0,6.0,or,2800.0,0,0,0,0
1.0834000000238884,-1.0,8.0,7.0,mov,2800.0,0,1,1,1
1.2593000000237953,1.0,8.0,8.0,or,2800.0,1,1,0,1
1.122299999976065,1.0,8.0,9.0,mov,2800.0,1,1,1,1
1.2053999999761582,1.0,8.0,10.0,or,2800.0,0,1,1,0
1.6776999999762048,1.0,8.0,11.0,mov,2800.0,0,1,1,1
1.234799999976065,1.0,8.0,12.0,or,2800.0,1,1,0,1
1.0538000000000465,1.0,8.0,13.0,mov,2800.0,1,1,1,1
1.48,1.0,8.0,14.0,or,2800.0,0,1,1,0
1.2517999999523164,1.0,8.0,15.0,mov,2800.0,0,1,0,0
1.405299999976065,1.0,8.0,16.0,or,2800.0,1,1,1,0
1.464600000023842,1.0,8.0,17.0,or,2800.0,0,0,1,0
1.178999999928521,1.0,8.0,18.0,or,2800.0,1,0,1,0
1.245599999928381,1.0,8.0,19.0,mov,2800.0,0,1,1,0
1.055499999928521,1.0,8.0,20.0,mov,2800.0,1,0,1,0
1.8480999999523628,1.0,8.0,21.0,or,2800.0,0,1,0,1
1.1903999999524095,1.0,8.0,22.0,or,2800.0,1,0,0,1
1.0043000000000466,1.0,8.0,23.0,or,2800.0,0,0,0,1
1.1081999999284744,-1.0,8.0,24.0,mov,2800.0,0,1,0,0
0.9871000000000932,1.0,8.0,25.0,mov,2800.0,0,0,0,0
1.555099999952363,1.0,8.0,26.0,or,2800.0,1,1,1,0
1.659299999976065,1.0,8.0,27.0,mov,2800.0,0,1,1,0
1.6012999999285675,1.0,8.0,28.0,or,2800.0,0,1,0,0
1.082100000023842,1.0,8.0,29.0,or,2800.0,0,0,0,0
1.4096999999284745,1.0,8.0,30.0,or,2800.0,1,0,1,0
1.3985000000237486,1.0,8.0,31.0,or,2800.0,0,0,1,0
1.430799999976065,1.0,8.0,32.0,or,2800.0,0,0,1,1
1.210599999952363,1.0,8.0,33.0,mov,2800.0,0,1,1,1
1.4554999999522698,1.0,8.0,34.0,mov,2800.0,1,0,0,1
1.3614000000238884,1.0,8.0,35.0,or,2800.0,1,1,1,1
1.2302999999285675,1.0,8.0,36.0,or,2800.0,1,0,0,0
1.253199999976205,1.0,8.0,37.0,mov,2800.0,0,1,0,1
1.2112999999285676,1.0,8.0,38.0,mov,2800.0,1,0,1,0
1.231100000023842,1.0,8.0,39.0,mov,2800.0,0,0,1,0
1.0934000000238884,1.0,8.0,40.0,mov,2800.0,0,0,0,0
1.5070999999761117,1.0,8.0,41.0,or,2800.0,0,1,0,0
1.2316999999284743,1.0,8.0,42.0,or,2800.0,1,0,1,0
1.6384999999522698,1.0,8.0,43.0,mov,2800.0,0,1,1,0
1.434500000023749,1.0,8.0,44.0,or,2800.0,1,1,0,1
1.8075999999523629,1.0,8.0,45.0,or,2800.0,1,0,1,1
1.413099999928381,1.0,8.0,46.0,or,2800.0,0,0,1,0
1.140600000023842,1.0,8.0,47.0,or,2800.0,1,0,0,1
1.1715999999523627,1.0,8.0,48.0,mov,2800.0,1,1,0,0
1.399899999952409,1.0,8.0,49.0,mov,2800.0,1,0,0,0
1.5260999999761116,1.0,8.0,50.0,or,2800.0,0,1,0,1
1.1436000000238418,1.0,8.0,51.0,mov,2800.0,1,1,1,0
1.2693999999524097,1.0,8.0,52.0,mov,2800.0,0,0,1,0
1.0142999999285676,1.0,8.0,53.0,mov,2800.0,0,0,0,0
1.2905999999283813,1.0,8.0,54.0,or,2800.0,0,1,0,0
1.2246999999762047,1.0,8.0,55.0,or,2800.0,0,0,1,1
1.0217999999285676,1.0,8.0,56.0,or,2800.0,0,0,0,0
1.2285999999761117,1.0,8.0,57.0,mov,2800.0,1,1,1,0
1.3249000000238884,1.0,8.0,58.0,mov,2800.0,1,0,0,0
1.1596000000000932,1.0,8.0,59.0,mov,2800.0,0,0,1,0
1.2529999999522696,1.0,8.0,60.0,or,2800.0,0,1,0,0
1.121599999952363,1.0,8.0,61.0,mov,2800.0,1,1,0,1
1.275,1.0,8.0,62.0,or,2800.0,1,1,1,1
1.2058000000000466,1.0,8.0,63.0,or,2800.0,1,0,0,0
1.1658999999524091,1.0,8.0,64.0,mov,2800.0,1,1,0,0
1.251,1.0,8.0,65.0,or,2800.0,1,1,0,0
1.3576999999762047,1.0,8.0,66.0,mov,2800.0,0,1,1,0
1.4111999999762046,1.0,8.0,67.0,or,2800.0,0,1,1,1
1.8008999999524091,1.0,8.0,68.0,or,2800.0,0,0,1,1
1.490800000023795,1.0,8.0,69.0,or,2800.0,1,0,0,1
1.3573999999524091,1.0,8.0,70.0,mov,2800.0,0,1,0,1
1.3004000000238884,1.0,8.0,71.0,or,2800.0,1,1,1,0
1.3258999999524097,1.0,8.0,72.0,or,2800.0,0,0,1,0
1.0881999999999534,1.0,8.0,73.0,mov,2800.0,1,1,1,0
1.2594000000238883,1.0,8.0,74.0,or,2800.0,0,1,1,0
1.2114999999522698,1.0,8.0,75.0,mov,2800.0,0,1,0,0
0.9066999999762048,1.0,8.0,76.0,mov,2800.0,1,0,1,0
1.3914999999522697,1.0,8.0,77.0,or,2800.0,1,1,0,0
1.224,1.0,8.0,78.0,or,2800.0,1,0,1,1
1.3456000000000932,1.0,8.0,79.0,or,2800.0,1,0,1,1
1.184499999928521,1.0,8.0,0.0,mov,2800.0,1,1,1,1
1.0573999999524095,1.0,8.0,1.0,mov,2800.0,1,0,0,0
1.6750999999523628,1.0,8.0,2.0,or,2800.0,0,1,1,0
1.520199999952221,1.0,8.0,3.0,mov,2800.0,0,1,0,0
1.4674999999762512,1.0,8.0,4.0,mov,2800.0,0,0,1,1
0.9956999999522232,1.0,8.0,5.0,mov,2800.0,0,0,0,0
1.0083999999524094,1.0,8.0,6.0,mov,2800.0,0,0,1,1
1.618299999976065,1.0,8.0,7.0,or,2800.0,0,1,1,1
1.6675000000237488,1.0,8.0,8.0,mov,2800.0,0,1,1,1
2.106399999976158,1.0,8.0,9.0,or,2800.0,1,1,1,0
1.4752999999285676,1.0,8.0,10.0,mov,2800.0,1,1,1,1
1.640000000023749,1.0,8.0,11.0,or,2800.0,1,1,1,1
1.4940999999283813,1.0,8.0,12.0,or,2800.0,0,0,1,0
1.252899999976158,1.0,8.0,13.0,or,2800.0,0,0,1,1
1.0160999999523628,1.0,8.0,14.0,or,2800.0,0,0,0,0
1.240800000023795,1.0,8.0,15.0,mov,2800.0,1,1,1,0
1.6921999999522233,-1.0,8.0,16.0,mov,2800.0,0,0,1,0
1.2020999999761115,1.0,8.0,17.0,mov,2800.0,1,0,1,0
1.034200000023935,1.0,8.0,18.0,mov,2800.0,1,0,0,0
1.1405999999283811,1.0,8.0,19.0,or,2800.0,1,1,1,1
1.048799999976065,1.0,8.0,20.0,or,2800.0,1,0,0,0
1.1781999999762047,1.0,8.0,21.0,mov,2800.0,1,1,0,0
1.5033000000000465,1.0,8.0,22.0,mov,2800.0,0,0,0,1
1.0678999999284278,1.0,8.0,23.0,mov,2800.0,0,0,1,1
1.005,1.0,8.0,24.0,mov,2800.0,0,0,0,0
1.3972000000239204,1.0,8.0,25.0,or,2800.0,1,1,0,1
1.2646999999759574,1.0,8.0,26.0,mov,2800.0,1,1,0,0
1.4023000000240282,1.0,8.0,27.0,or,2800.0,1,1,0,0
1.1854999999282736,1.0,8.0,28.0,mov,2800.0,1,1,0,0
1.864900000023641,1.0,8.0,29.0,or,2800.0,0,1,1,0
1.4316999999759574,1.0,8.0,30.0,or,2800.0,1,0,0,1
1.3775999999763444,1.0,8.0,31.0,or,2800.0,0,0,0,1
1.8549999999282736,1.0,8.0,32.0,mov,2800.0,0,1,0,0
1.9452000000239205,1.0,8.0,33.0,or,2800.0,0,1,1,1
1.6355000000237487,1.0,8.0,34.0,or,2800.0,0,0,0,0
1.554899999976158,1.0,8.0,35.0,mov,2800.0,0,1,1,1
1.62659999995213,1.0,8.0,36.0,or,2800.0,1,1,0,1
2.372100000023842,1.0,8.0,37.0,mov,2800.0,1,1,0,0
1.84109999995213,1.0,8.0,38.0,mov,2800.0,0,0,1,0
1.5753999999286608,1.0,8.0,39.0,or,2800.0,0,1,0,0
1.2737999999285676,1.0,8.0,40.0,mov,2800.0,1,1,0,1
1.4288999999524097,1.0,8.0,41.0,mov,2800.0,0,0,0,1
1.0477999999523162,1.0,8.0,42.0,mov,2800.0,1,0,1,0
1.7841999999284743,1.0,8.0,43.0,mov,2800.0,1,0,1,1
1.6412999999523163,1.0,8.0,44.0,or,2800.0,0,1,0,1
1.6432000000001863,1.0,8.0,45.0,or,2800.0,0,0,1,1
1.4757999999285676,1.0,8.0,46.0,mov,2800.0,0,1,0,0
1.9805999999763444,1.0,8.0,47.0,or,2800.0,1,1,0,1
1.6752999999285676,1.0,8.0,48.0,mov,2800.0,1,1,1,1
1.4887999999523165,1.0,8.0,49.0,or,2800.0,1,1,0,0
1.2485000000237778,1.0,8.0,50.0,or,2800.0,1,0,0,0
1.7180999999284103,1.0,8.0,51.0,mov,2800.0,1,1,1,1
1.200999999928288,1.0,8.0,52.0,or,2800.0,1,1,0,0
1.6071999999284745,1.0,8.0,53.0,or,2800.0,1,0,0,0
1.7962999999523164,1.0,8.0,54.0,or,2800.0,0,0,0,1
1.2638999999761582,1.0,8.0,55.0,mov,2800.0,1,1,0,1
2.164300000023999,1.0,8.0,56.0,or,2800.0,0,1,0,1
1.7977999999523162,1.0,8.0,57.0,mov,2800.0,0,1,1,1
1.829399999999936,1.0,8.0,58.0,or,2800.0,0,1,1,1
1.92459999995213,1.0,8.0,59.0,mov,2800.0,1,1,0,1
1.7114999999762512,1.0,8.0,60.0,or,2800.0,1,1,0,0
1.8191000000000932,1.0,8.0,61.0,mov,2800.0,0,1,0,1
1.748399999999936,1.0,8.0,62.0,or,2800.0,1,1,1,0
1.7565999999284103,1.0,8.0,63.0,or,2800.0,1,0,1,1
1.7566999999759718,1.0,8.0,64.0,mov,2800.0,0,1,1,0
1.7489000000236556,1.0,8.0,65.0,mov,2800.0,1,0,1,0
1.444799999976094,1.0,8.0,66.0,mov,2800.0,0,0,1,0
1.130700000023935,1.0,8.0,67.0,mov,2800.0,0,0,0,0
1.9393999999761584,1.0,8.0,68.0,mov,2800.0,0,0,1,1
2.035699999952223,1.0,8.0,69.0,mov,2800.0,0,0,0,0
2.202100000000093,1.0,8.0,70.0,or,2800.0,0,1,0,0
1.956899999976158,1.0,8.0,71.0,or,2800.0,0,0,1,1
1.7150000000237486,1.0,8.0,72.0,mov,2800.0,1,1,0,1
1.9780999999283813,1.0,8.0,73.0,mov,2800.0,0,0,0,1
1.3835999999283812,1.0,8.0,74.0,or,2800.0,1,1,1,0
1.9580999999763444,1.0,8.0,75.0,or,2800.0,0,0,1,0
1.735399999928661,1.0,8.0,76.0,mov,2800.0,0,1,0,0
1.236,1.0,8.0,77.0,mov,2800.0,1,0,0,1
1.4759999999525026,1.0,8.0,78.0,or,2800.0,0,1,1,0
1.7905000000237488,1.0,8.0,79.0,mov,2800.0,1,1,1,0
1.5250999999763444,1.0,8.0,0.0,or,2800.0,0,1,1,0
1.1978999999524094,1.0,8.0,1.0,or,2800.0,0,0,0,0
1.3714999999762514,1.0,8.0,2.0,mov,2800.0,1,1,1,0
1.5335999999283794,1.0,8.0,3.0,mov,2800.0,0,0,1,0
0.9371999999284744,1.0,8.0,4.0,mov,2800.0,0,0,0,0
1.663300000024028,1.0,8.0,5.0,or,2800.0,1,1,1,0
1.3319999999762513,1.0,8.0,6.0,mov,2800.0,0,1,0,1
1.2723999999761546,1.0,8.0,7.0,mov,2800.0,1,0,1,0
1.5939999999999963,1.0,8.0,8.0,or,2800.0,0,1,1,0
1.7783999999286606,1.0,8.0,9.0,or,2800.0,0,0,1,1
1.396100000023842,1.0,8.0,10.0,mov,2800.0,1,1,1,0
1.5026000000238418,1.0,8.0,11.0,or,2800.0,0,1,0,1
1.443700000023935,1.0,8.0,12.0,or,2800.0,0,0,0,0
1.1840000000237487,1.0,8.0,13.0,mov,2800.0,1,1,1,0
1.5358999999999068,1.0,8.0,14.0,or,2800.0,0,1,0,1
1.767700000023935,1.0,8.0,15.0,mov,2800.0,0,1,0,0
1.3739999999525023,1.0,8.0,16.0,mov,2800.0,1,0,1,0
1.491800000024028,1.0,8.0,17.0,or,2800.0,0,1,1,0
1.5990000000237488,1.0,8.0,18.0,or,2800.0,1,0,1,0
1.564100000000093,1.0,8.0,19.0,mov,2800.0,0,1,1,0
1.8635,1.0,8.0,20.0,or,2800.0,1,1,1,0
1.3244999999525024,1.0,8.0,21.0,or,2800.0,0,0,0,1
1.2327999999523165,1.0,8.0,22.0,or,2800.0,1,0,0,1
1.345199999952223,1.0,8.0,23.0,mov,2800.0,1,1,1,1
1.1261000000000785,1.0,8.0,24.0,mov,2800.0,1,0,1,1
1.3995999999763444,1.0,8.0,25.0,or,2800.0,1,1,1,1
1.0656000000000785,1.0,8.0,26.0,mov,2800.0,1,1,1,1
1.8422000000239205,1.0,8.0,27.0,mov,2800.0,0,0,0,1
2.1145,1.0,8.0,28.0,or,2800.0,1,1,0,1
1.6363000000240282,1.0,8.0,29.0,mov,2800.0,1,1,0,0
1.7481999999284743,1.0,8.0,30.0,mov,2800.0,1,0,0,0
1.2216999999284743,1.0,8.0,31.0,or,2800.0,1,1,0,0
1.6117000000239203,1.0,8.0,32.0,or,2800.0,0,0,1,0
1.5001999999284743,1.0,8.0,33.0,mov,2800.0,0,1,1,1
1.3862000000239203,1.0,8.0,34.0,mov,2800.0,0,0,1,1
1.2523999999286608,1.0,8.0,35.0,mov,2800.0,1,0,0,1
1.212899999976158,1.0,8.0,36.0,or,2800.0,0,1,0,1
1.8618999999286607,1.0,8.0,37.0,or,2800.0,0,0,1,1
1.60409999995213,1.0,8.0,38.0,mov,2800.0,0,1,1,1
1.4542999999285675,1.0,8.0,39.0,or,2800.0,1,1,0,1
1.3367999999285676,1.0,8.0,40.0,mov,2800.0,1,1,0,0
1.8320999999283816,1.0,8.0,41.0,mov,2800.0,0,0,0,1
1.35059999995213,1.0,8.0,42.0,or,2800.0,0,1,0,0
1.7502999999760651,1.0,8.0,43.0,or,2800.0,1,0,1,0
1.4594999999282885,1.0,8.0,44.0,or,2800.0,0,0,1,0
1.306899999976158,1.0,8.0,45.0,mov,2800.0,0,1,0,0
1.534299999976065,1.0,8.0,46.0,or,2800.0,0,1,1,1
1.2522999999523163,1.0,8.0,47.0,mov,2800.0,0,1,1,1
1.1873999999524094,1.0,8.0,48.0,mov,2800.0,1,0,1,0
1.020399999999936,1.0,8.0,49.0,mov,2800.0,1,0,0,0
1.2615,1.0,8.0,50.0,or,2800.0,1,1,0,0
1.430099999976315,1.0,8.0,51.0,mov,2800.0,0,1,1,0
1.263899999999936,1.0,8.0,52.0,or,2800.0,1,1,0,1
1.60559999995213,1.0,8.0,53.0,or,2800.0,0,0,1,0
1.190799999976094,1.0,8.0,54.0,or,2800.0,1,0,0,1
1.6014999999762514,1.0,8.0,55.0,mov,2800.0,1,1,1,1
1.8244000000236555,1.0,8.0,56.0,or,2800.0,0,1,1,0
1.158699999975972,1.0,8.0,57.0,mov,2800.0,0,1,0,0
1.1762000000001571,1.0,8.0,58.0,mov,2800.0,1,0,0,1
1.5605,1.0,8.0,59.0,mov,2800.0,0,0,0,1
1.324100000000093,1.0,8.0,60.0,or,2800.0,1,1,1,0
1.032899999952409,1.0,8.0,61.0,or,2800.0,1,0,0,0
1.1599999999762514,1.0,8.0,62.0,mov,2800.0,0,1,1,0
1.125599999976315,1.0,8.0,63.0,mov,2800.0,1,0,1,0
1.263399999976158,1.0,8.0,64.0,mov,2800.0,1,0,1,1
1.2145999999284105,1.0,8.0,65.0,or,2800.0,1,1,1,1
1.3947000000001573,1.0,8.0,66.0,or,2800.0,0,0,0,1
1.317899999976158,1.0,8.0,67.0,or,2800.0,0,0,1,1
1.3062000000239349,1.0,8.0,68.0,or,2800.0,1,0,1,0
1.2587999999998138,1.0,8.0,69.0,or,2800.0,1,0,0,0
1.459600000000093,1.0,8.0,70.0,mov,2800.0,1,1,1,1
1.6834999999525029,1.0,8.0,71.0,or,2800.0,0,1,0,1
1.1677000000001865,1.0,8.0,72.0,or,2800.0,0,0,0,0
1.656299999976065,1.0,8.0,73.0,mov,2800.0,0,1,0,0
1.2480999999763445,1.0,8.0,74.0,or,2800.0,1,1,0,1
1.4992999999523162,1.0,8.0,75.0,or,2800.0,1,0,1,1
1.393399999999907,1.0,8.0,76.0,mov,2800.0,1,1,0,0
1.352399999928661,1.0,8.0,77.0,mov,2800.0,0,0,0,1
1.47059999995213,1.0,8.0,78.0,or,2800.0,0,1,1,1
1.256199999975972,1.0,8.0,79.0,or,2800.0,1,0,1,0
1.130640000000014,1.0,24.0,0.0,mov,2300.0,0,0,0,1
0.951280000000028,1.0,24.0,1.0,or,2300.0,0,1,1,1
1.060060000000056,1.0,24.0,2.0,or,2300.0,1,0,0,1
0.849579999999958,-1.0,24.0,3.0,mov,2300.0,0,1,1,0
1.4869399999999442,1.0,24.0,4.0,or,2300.0,0,1,0,0
1.5960200000000204,1.0,24.0,5.0,mov,2300.0,0,1,1,1
0.8883800000000046,1.0,24.0,6.0,mov,2300.0,1,0,1,0
0.7245400000000373,1.0,24.0,7.0,mov,2300.0,1,0,0,0
1.4744599999999628,1.0,24.0,8.0,or,2300.0,0,1,0,1
0.7193000000000466,1.0,24.0,9.0,or,2300.0,0,0,1,1
0.9248000000000466,1.0,24.0,10.0,or,2300.0,0,0,1,1
0.7294599999999627,1.0,24.0,11.0,mov,2300.0,0,1,1,1
1.142920000000042,-1.0,24.0,12.0,or,2300.0,0,1,0,0
0.8034599999999628,1.0,24.0,13.0,mov,2300.0,1,1,1,0
0.7360799999999581,1.0,24.0,14.0,mov,2300.0,1,0,0,0
0.8925600000000559,-1.0,24.0,15.0,or,2300.0,0,1,1,0
0.7455400000000373,1.0,24.0,16.0,or,2300.0,1,0,1,0
0.7755400000000372,1.0,24.0,17.0,or,2300.0,1,0,0,0
0.9171600000000326,1.0,24.0,18.0,mov,2300.0,0,1,0,1
0.7699399999999441,1.0,24.0,19.0,or,2300.0,1,1,1,0
0.7346600000000326,1.0,24.0,20.0,or,2300.0,1,0,1,1
0.8274799999999813,1.0,24.0,21.0,mov,2300.0,0,1,0,1
0.6646199999999953,1.0,24.0,22.0,or,2300.0,1,1,1,0
0.726359999999986,-1.0,24.0,23.0,or,2300.0,0,0,0,1
0.6744399999999441,1.0,24.0,24.0,mov,2300.0,0,1,0,0
1.0546600000000326,1.0,24.0,25.0,mov,2300.0,1,0,0,1
0.9722399999999908,1.0,24.0,26.0,or,2300.0,0,1,0,1
0.5864599999999628,1.0,24.0,27.0,or,2300.0,1,0,1,0
0.773420000000042,1.0,24.0,28.0,mov,2300.0,0,1,1,0
1.0279000000000234,1.0,24.0,29.0,mov,2300.0,0,0,0,0
1.296,1.0,24.0,30.0,or,2300.0,0,1,1,1
1.5814399999999442,1.0,24.0,31.0,or,2300.0,1,0,1,0
1.2416800000000368,1.0,24.0,32.0,mov,2300.0,1,1,1,1
1.2073399999999528,1.0,24.0,33.0,or,2300.0,0,1,1,0
0.7245,1.0,24.0,34.0,or,2300.0,1,0,0,1
0.7851600000000472,1.0,24.0,35.0,or,2300.0,0,0,1,0
0.7189599999999627,1.0,24.0,36.0,mov,2300.0,1,1,1,0
0.6201800000000367,1.0,24.0,37.0,or,2300.0,1,1,0,0
1.0641399999999994,1.0,24.0,38.0,or,2300.0,0,0,1,0
0.9177199999999576,1.0,24.0,39.0,or,2300.0,0,0,1,1
0.8496199999999954,1.0,24.0,40.0,mov,2300.0,0,1,0,0
0.7191600000000471,1.0,24.0,41.0,mov,2300.0,1,0,0,1
0.8118000000000466,1.0,24.0,42.0,or,2300.0,1,1,1,1
0.6978600000000006,1.0,24.0,43.0,or,2300.0,1,0,1,1
0.6945200000000187,1.0,24.0,44.0,mov,2300.0,0,1,1,0
0.9958600000000006,1.0,24.0,45.0,or,2300.0,0,1,0,0
0.8487399999999907,1.0,24.0,46.0,mov,2300.0,1,1,0,1
1.1966199999999954,1.0,24.0,47.0,or,2300.0,0,1,0,1
0.7939799999999814,1.0,24.0,48.0,or,2300.0,1,0,0,1
0.7748800000000047,1.0,24.0,49.0,mov,2300.0,1,1,1,1
0.6275,1.0,24.0,50.0,mov,2300.0,1,0,0,0
1.0402600000000093,1.0,24.0,51.0,or,2300.0,0,1,0,1
1.1501600000000325,-1.0,24.0,52.0,mov,2300.0,0,1,1,1
0.6827399999999907,1.0,24.0,53.0,mov,2300.0,1,0,1,0
0.5350600000000558,1.0,24.0,54.0,mov,2300.0,1,0,1,1
1.445140000000014,1.0,24.0,55.0,mov,2300.0,0,0,0,1
0.8658399999999674,1.0,24.0,56.0,or,2300.0,0,1,1,1
0.7844399999999441,1.0,24.0,57.0,mov,2300.0,1,1,1,0
1.7877600000000091,1.0,24.0,58.0,or,2300.0,1,1,0,0
1.0812399999999909,1.0,24.0,59.0,mov,2300.0,0,1,1,0
1.031359999999986,1.0,24.0,60.0,or,2300.0,0,1,0,0
1.0428000000000466,1.0,24.0,61.0,mov,2300.0,0,1,1,1
1.232719999999972,1.0,24.0,62.0,mov,2300.0,1,0,1,0
1.5166200000001118,1.0,24.0,63.0,or,2300.0,0,1,1,0
1.0495199999999896,1.0,24.0,64.0,mov,2300.0,1,1,1,0
0.7434599999999627,1.0,24.0,65.0,mov,2300.0,0,0,0,1
0.883939999999915,1.0,24.0,66.0,or,2300.0,1,1,1,0
0.6894599999999628,-1.0,24.0,67.0,or,2300.0,0,0,0,1
0.9103600000001024,1.0,24.0,68.0,or,2300.0,1,0,0,1
0.9233000000000464,1.0,24.0,69.0,mov,2300.0,1,1,1,1
0.6321000000000931,1.0,24.0,70.0,mov,2300.0,1,0,0,0
0.7573400000000838,1.0,24.0,71.0,or,2300.0,1,1,0,0
0.9461399999998976,1.0,24.0,72.0,mov,2300.0,1,1,1,1
0.6874800000000105,1.0,24.0,73.0,mov,2300.0,1,0,1,1
0.8120400000000373,1.0,24.0,74.0,or,2300.0,1,1,1,1
0.5688000000000466,1.0,24.0,75.0,or,2300.0,1,0,0,0
0.7101999999999534,1.0,24.0,76.0,mov,2300.0,1,1,0,0
0.5297600000000093,1.0,24.0,77.0,or,2300.0,1,1,0,0
0.4958799999998882,1.0,24.0,78.0,mov,2300.0,1,1,0,0
0.8447399999999907,1.0,24.0,79.0,mov,2300.0,0,0,0,1
1.3988200000000652,1.0,24.0,0.0,or,2300.0,0,1,0,0
0.7235800000000745,1.0,24.0,1.0,or,2300.0,0,0,0,0
0.6881200000001118,1.0,24.0,2.0,mov,2300.0,1,1,1,0
0.6684599999999645,1.0,24.0,3.0,mov,2300.0,1,0,0,0
0.6181399999998975,1.0,24.0,4.0,mov,2300.0,0,0,0,1
0.5984599999999646,1.0,24.0,5.0,mov,2300.0,0,0,1,1
0.6449399999999441,1.0,24.0,6.0,mov,2300.0,1,0,1,0
0.7845200000000186,1.0,24.0,7.0,mov,2300.0,0,0,0,1
0.6708200000000651,-1.0,24.0,8.0,or,2300.0,0,1,0,0
0.8435,1.0,24.0,9.0,mov,2300.0,0,1,1,1
0.8888000000000466,1.0,24.0,10.0,mov,2300.0,0,0,1,1
0.8853600000001024,1.0,24.0,11.0,or,2300.0,1,1,0,1
1.0268999999999069,1.0,24.0,12.0,or,2300.0,0,0,0,1
0.8472600000000093,1.0,24.0,13.0,mov,2300.0,0,1,0,0
1.003560000000056,1.0,24.0,14.0,mov,2300.0,0,0,0,0
0.7126999999999535,1.0,24.0,15.0,mov,2300.0,1,0,0,1
0.6142399999999907,1.0,24.0,16.0,mov,2300.0,1,0,0,0
1.0750400000000373,1.0,24.0,17.0,mov,2300.0,1,0,1,1
1.248100000000093,1.0,24.0,18.0,or,2300.0,1,1,0,0
0.7970400000000373,-1.0,24.0,19.0,or,2300.0,0,0,0,1
0.7134799999999814,1.0,24.0,20.0,mov,2300.0,1,1,1,0
0.7424599999999627,1.0,24.0,21.0,or,2300.0,1,1,0,0
0.6114399999999441,1.0,24.0,22.0,or,2300.0,1,0,0,0
1.1703600000001024,1.0,24.0,23.0,mov,2300.0,0,1,1,0
0.5266799999999348,1.0,24.0,24.0,mov,2300.0,0,0,0,0
1.386959999999963,1.0,24.0,25.0,or,2300.0,0,1,1,1
0.8890600000000559,1.0,24.0,26.0,mov,2300.0,1,1,1,0
0.8059399999999441,-1.0,24.0,27.0,or,2300.0,0,1,0,1
0.8502800000000279,1.0,24.0,28.0,mov,2300.0,1,1,0,1
0.8785400000000373,1.0,24.0,29.0,mov,2300.0,0,0,0,1
0.6193600000001025,1.0,24.0,30.0,mov,2300.0,1,0,0,1
0.8088400000000838,-1.0,24.0,31.0,mov,2300.0,0,0,1,0
0.8384799999999814,1.0,24.0,32.0,mov,2300.0,1,0,1,0
0.6264399999999442,1.0,24.0,33.0,mov,2300.0,1,0,0,0
0.7043000000000466,1.0,24.0,34.0,mov,2300.0,0,0,0,1
0.8606599999999162,1.0,24.0,35.0,or,2300.0,1,1,0,1
0.7781399999998976,1.0,24.0,36.0,mov,2300.0,1,1,1,1
0.8080200000000186,1.0,24.0,37.0,or,2300.0,1,1,1,1
1.332259999999995,1.0,24.0,38.0,mov,2300.0,0,1,1,0
0.945,1.0,24.0,39.0,or,2300.0,1,1,1,0
1.150340000000084,1.0,24.0,40.0,or,2300.0,0,0,0,1
0.8590200000000187,1.0,24.0,41.0,or,2300.0,0,0,1,1
0.728,1.0,24.0,42.0,mov,2300.0,1,1,0,1
0.6125200000000186,1.0,24.0,43.0,or,2300.0,1,1,1,1
0.7233600000001025,1.0,24.0,44.0,mov,2300.0,0,1,0,1
0.7203000000000466,1.0,24.0,45.0,mov,2300.0,1,0,0,1
0.6531799999999057,1.0,24.0,46.0,mov,2300.0,1,0,0,0
0.6641399999998976,1.0,24.0,47.0,or,2300.0,1,1,0,0
0.6301399999998976,1.0,24.0,48.0,or,2300.0,1,0,1,1
0.7548200000000943,1.0,24.0,49.0,mov,2300.0,0,1,0,1
0.992,1.0,24.0,50.0,mov,2300.0,1,0,0,1
1.0203600000001023,1.0,24.0,51.0,or,2300.0,0,1,1,0
1.0334599999999627,1.0,24.0,52.0,mov,2300.0,1,1,0,1
0.965719999999972,1.0,24.0,53.0,or,2300.0,1,1,1,1
0.5960400000000372,1.0,24.0,54.0,or,2300.0,1,0,0,0
0.7693999999999068,1.0,24.0,55.0,mov,2300.0,0,1,1,0
0.6218400000000838,1.0,24.0,56.0,mov,2300.0,0,0,0,0
0.8910200000000186,1.0,24.0,57.0,or,2300.0,1,1,0,1
0.8084399999999441,1.0,24.0,58.0,mov,2300.0,1,1,0,0
0.6611999999999534,1.0,24.0,59.0,or,2300.0,1,1,1,1
0.6898000000000466,1.0,24.0,60.0,mov,2300.0,1,1,1,1
0.4791200000001117,1.0,24.0,61.0,mov,2300.0,1,0,1,1
0.6682399999999907,1.0,24.0,62.0,mov,2300.0,0,0,1,0
0.6486799999999057,1.0,24.0,63.0,or,2300.0,1,1,1,0
0.7259199999999255,1.0,24.0,64.0,mov,2300.0,0,1,0,1
1.1061999999999534,1.0,24.0,65.0,or,2300.0,0,1,1,1
0.8151200000001118,1.0,24.0,66.0,mov,2300.0,0,1,0,0
0.8286599999999161,1.0,24.0,67.0,or,2300.0,0,1,1,1
0.7940199999999895,-1.0,24.0,68.0,mov,2300.0,0,1,0,0
0.9022600000000092,1.0,24.0,69.0,mov,2300.0,0,0,1,1
1.0113999999999068,1.0,24.0,70.0,or,2300.0,0,1,0,0
0.6733600000001024,1.0,24.0,71.0,or,2300.0,0,0,1,1
0.8450400000000372,1.0,24.0,72.0,mov,2300.0,0,1,1,1
0.873939999999915,1.0,24.0,73.0,or,2300.0,0,1,0,0
0.8233400000000838,1.0,24.0,74.0,or,2300.0,1,0,1,0
1.0769599999999628,1.0,24.0,75.0,or,2300.0,1,0,1,1
0.9138200000000944,1.0,24.0,76.0,mov,2300.0,0,1,0,1
0.6068200000000943,1.0,24.0,77.0,or,2300.0,1,1,1,0
0.8600800000000745,1.0,24.0,78.0,mov,2300.0,1,1,1,1
1.144719999999972,1.0,24.0,79.0,mov,2300.0,0,0,1,0
1.1135200000000187,1.0,24.0,0.0,mov,2300.0,1,0,1,0
0.9343200000000652,1.0,24.0,1.0,mov,2300.0,0,0,1,0
0.8033600000001024,1.0,24.0,2.0,or,2300.0,1,1,1,0
0.7683400000000838,1.0,24.0,3.0,mov,2300.0,1,1,0,0
0.7813600000001024,1.0,24.0,4.0,or,2300.0,1,1,1,1
0.7468999999999086,1.0,24.0,5.0,or,2300.0,1,0,0,0
0.5032600000000094,-1.0,24.0,6.0,or,2300.0,1,0,1,1
0.5806000000000932,1.0,24.0,7.0,or,2300.0,1,0,1,1
0.6268600000001024,1.0,24.0,8.0,or,2300.0,1,0,1,1
0.927219999999972,1.0,24.0,9.0,or,2300.0,0,0,1,0
0.828280000000028,1.0,24.0,10.0,or,2300.0,1,0,1,0
1.0012399999999906,1.0,24.0,11.0,mov,2300.0,0,1,1,0
0.6303600000001024,1.0,24.0,12.0,or,2300.0,1,1,0,1
1.250820000000065,1.0,24.0,13.0,mov,2300.0,1,1,0,0
0.6072800000000279,1.0,24.0,14.0,or,2300.0,1,1,0,0
0.8448600000001024,1.0,24.0,15.0,mov,2300.0,0,1,1,0
0.5861000000000931,1.0,24.0,16.0,or,2300.0,1,1,1,0
0.5658000000000466,1.0,24.0,17.0,mov,2300.0,0,1,1,0
0.5323000000000465,1.0,24.0,18.0,or,2300.0,1,1,1,0
0.5928400000000765,-1.0,24.0,19.0,mov,2300.0,1,1,0,0
0.7656799999999349,1.0,24.0,20.0,mov,2300.0,0,0,1,0
0.9863999999999068,1.0,24.0,21.0,or,2300.0,0,1,0,0
1.1113799999998883,1.0,24.0,22.0,or,2300.0,0,0,1,1
0.7244799999999814,1.0,24.0,23.0,mov,2300.0,1,1,1,0
1.2014799999999817,1.0,24.0,24.0,or,2300.0,0,1,0,1
1.0555400000000372,1.0,24.0,25.0,or,2300.0,1,0,0,1
0.8273400000000838,1.0,24.0,26.0,or,2300.0,0,0,0,1
0.8729399999999441,1.0,24.0,27.0,mov,2300.0,0,1,0,0
0.8857199999999721,1.0,24.0,28.0,or,2300.0,0,1,1,1
0.7713000000000466,1.0,24.0,29.0,or,2300.0,0,0,0,0
0.7189799999999814,1.0,24.0,30.0,or,2300.0,0,0,1,1
0.8122800000000425,1.0,24.0,31.0,mov,2300.0,1,1,0,1
0.7136799999999203,-1.0,24.0,32.0,mov,2300.0,0,0,1,0
0.9016200000001264,1.0,24.0,33.0,or,2300.0,0,1,0,0
0.5795600000000559,1.0,24.0,34.0,or,2300.0,0,0,0,0
0.6726200000001263,1.0,24.0,35.0,or,2300.0,0,0,1,1
0.7005800000000745,1.0,24.0,36.0,mov,2300.0,1,1,0,1
0.9862800000000423,1.0,24.0,37.0,mov,2300.0,1,0,0,0
0.6471200000001263,1.0,24.0,38.0,mov,2300.0,1,0,0,0
0.8691200000001263,1.0,24.0,39.0,or,2300.0,0,1,1,0
0.8975,-1.0,24.0,40.0,or,2300.0,1,0,1,0
0.7033600000001025,1.0,24.0,41.0,or,2300.0,0,0,1,0
0.7947199999999575,1.0,24.0,42.0,mov,2300.0,1,1,1,0
0.8895,1.0,24.0,43.0,or,2300.0,1,1,0,0
0.6617599999999948,1.0,24.0,44.0,or,2300.0,1,0,0,0
1.0107400000000053,1.0,24.0,45.0,or,2300.0,0,0,0,1
1.2157199999999722,1.0,24.0,46.0,or,2300.0,0,0,1,1
0.7963799999998883,1.0,24.0,47.0,mov,2300.0,1,1,0,1
0.7773600000001024,1.0,24.0,48.0,or,2300.0,1,1,1,1
0.7897199999999721,1.0,24.0,49.0,mov,2300.0,0,1,0,1
0.7867800000000279,1.0,24.0,50.0,mov,2300.0,0,0,1,1
0.6884599999999628,1.0,24.0,51.0,mov,2300.0,0,0,1,1
1.0530200000000187,1.0,24.0,52.0,or,2300.0,0,1,1,1
0.9551200000001118,1.0,24.0,53.0,mov,2300.0,0,1,1,1
0.7274399999999441,1.0,24.0,54.0,mov,2300.0,1,0,1,0
1.2836399999998975,-1.0,24.0,55.0,mov,2300.0,0,0,0,1
0.9464599999999628,1.0,24.0,56.0,or,2300.0,0,1,1,1
0.815280000000028,1.0,24.0,57.0,or,2300.0,1,0,0,1
1.531600000000093,1.0,24.0,58.0,mov,2300.0,0,1,0,1
0.7133400000000838,1.0,24.0,59.0,mov,2300.0,1,0,1,0
0.6941599999999162,1.0,24.0,60.0,mov,2300.0,1,0,1,1
1.0433799999998885,1.0,24.0,61.0,or,2300.0,1,1,1,1
0.9278400000000838,1.0,24.0,62.0,or,2300.0,0,0,1,0
0.6842199999999721,1.0,24.0,63.0,or,2300.0,0,0,0,0
0.9054599999999629,1.0,24.0,64.0,mov,2300.0,0,1,0,0
1.4308999999999068,1.0,24.0,65.0,mov,2300.0,0,0,1,1
0.8989800000000104,1.0,24.0,66.0,or,2300.0,1,1,1,0
0.8173200000000943,1.0,24.0,67.0,mov,2300.0,1,1,0,0
0.782439999999915,1.0,24.0,68.0,or,2300.0,1,1,0,0
1.0028000000000463,1.0,24.0,69.0,mov,2300.0,1,1,1,1
0.8719599999999628,1.0,24.0,70.0,or,2300.0,1,1,0,0
0.6920199999999895,1.0,24.0,71.0,mov,2300.0,1,1,1,1
0.8812600000000093,1.0,24.0,72.0,or,2300.0,0,1,1,0
0.6377399999999906,1.0,24.0,73.0,mov,2300.0,1,1,0,1
0.8273600000001025,1.0,24.0,74.0,or,2300.0,1,1,1,1
0.935719999999972,1.0,24.0,75.0,mov,2300.0,0,1,1,0
0.5652399999999906,1.0,24.0,76.0,mov,2300.0,1,0,0,1
0.7714599999999627,1.0,24.0,77.0,mov,2300.0,0,0,0,1
0.750780000000028,1.0,24.0,78.0,mov,2300.0,0,0,0,0
0.7003799999998882,1.0,24.0,79.0,mov,2300.0,1,0,1,0
1.6724599999999628,1.0,24.0,0.0,or,2300.0,0,1,0,1
0.5176999999999534,1.0,24.0,1.0,or,2300.0,0,0,1,1
0.7867800000000279,1.0,24.0,2.0,or,2300.0,0,0,1,1
1.1993799999998882,1.0,24.0,3.0,mov,2300.0,0,1,0,0
0.7003600000001025,1.0,24.0,4.0,mov,2300.0,0,0,0,0
0.6974199999999237,1.0,24.0,5.0,mov,2300.0,1,0,0,1
0.9018799999998882,1.0,24.0,6.0,or,2300.0,1,1,0,0
0.6270400000000372,1.0,24.0,7.0,or,2300.0,0,0,1,0
0.7845,1.0,24.0,8.0,mov,2300.0,0,1,1,1
0.6214599999999627,1.0,24.0,9.0,or,2300.0,1,1,1,0
1.2581399999998977,1.0,24.0,10.0,or,2300.0,1,0,1,1
0.7603999999999068,1.0,24.0,11.0,or,2300.0,0,0,1,0
0.5961799999999348,1.0,24.0,12.0,or,2300.0,1,0,1,0
1.2178600000001023,1.0,24.0,13.0,or,2300.0,0,0,0,1
0.5904199999999254,1.0,24.0,14.0,or,2300.0,1,0,1,0
0.9228000000000466,1.0,24.0,15.0,or,2300.0,0,0,0,1
1.2404199999999257,1.0,24.0,16.0,mov,2300.0,0,1,0,0
0.8843200000000652,1.0,24.0,17.0,or,2300.0,1,1,1,0
1.3130600000000558,1.0,24.0,18.0,mov,2300.0,0,1,0,1
0.7351599999999234,1.0,24.0,19.0,mov,2300.0,1,0,1,0
0.9722600000000092,1.0,24.0,20.0,or,2300.0,1,1,1,1
0.8095600000000559,1.0,24.0,21.0,mov,2300.0,0,1,1,0
1.3822600000000094,1.0,24.0,22.0,mov,2300.0,0,0,1,1
1.4276200000001118,1.0,24.0,23.0,or,2300.0,1,1,1,0
0.7042399999999907,1.0,24.0,24.0,mov,2300.0,1,1,0,0
0.9892399999999908,1.0,24.0,25.0,or,2300.0,0,1,0,1
0.7304599999999627,1.0,24.0,26.0,or,2300.0,0,0,0,0
0.8877600000000093,1.0,24.0,27.0,mov,2300.0,0,1,1,1
0.7561599999999162,1.0,24.0,28.0,mov,2300.0,0,0,1,1
0.6417600000000093,1.0,24.0,29.0,mov,2300.0,1,0,0,1
0.7672800000000279,1.0,24.0,30.0,mov,2300.0,0,0,0,1
0.8108999999999069,1.0,24.0,31.0,or,2300.0,0,1,0,0
0.7758799999998737,1.0,24.0,32.0,or,2300.0,0,0,0,0
0.6932800000000425,1.0,24.0,33.0,mov,2300.0,1,1,1,0
0.5779399999999442,1.0,24.0,34.0,mov,2300.0,1,0,0,0
0.6223799999998737,1.0,24.0,35.0,mov,2300.0,1,0,1,1
0.9402800000000424,1.0,24.0,36.0,or,2300.0,1,1,0,0
1.4656200000001265,1.0,24.0,37.0,or,2300.0,0,0,1,0
0.6303400000000838,1.0,24.0,38.0,mov,2300.0,1,1,1,0
0.5636999999999535,1.0,24.0,39.0,mov,2300.0,1,0,0,0
0.5602400000000053,1.0,24.0,40.0,mov,2300.0,1,0,0,0
1.0691000000000932,1.0,24.0,41.0,mov,2300.0,0,0,1,0
1.2426000000000932,1.0,24.0,42.0,or,2300.0,0,1,0,0
0.8396799999999203,1.0,24.0,43.0,mov,2300.0,1,1,1,0
0.7721599999999161,1.0,24.0,44.0,mov,2300.0,1,0,1,1
0.9130600000000558,1.0,24.0,45.0,or,2300.0,1,1,1,1
0.5745,1.0,24.0,46.0,or,2300.0,1,0,1,1
0.5877399999999907,1.0,24.0,47.0,or,2300.0,1,0,0,0
0.7120400000000372,-1.0,24.0,48.0,or,2300.0,0,0,0,1
0.8369399999999442,1.0,24.0,49.0,mov,2300.0,1,1,0,1
1.153439999999944,1.0,24.0,50.0,or,2300.0,1,1,1,1
0.9425,1.0,24.0,51.0,mov,2300.0,0,1,1,0
0.7640800000000745,1.0,24.0,52.0,mov,2300.0,0,0,0,0
0.6163000000000466,1.0,24.0,53.0,mov,2300.0,1,0,0,1
0.5656399999998976,1.0,24.0,54.0,mov,2300.0,0,0,0,1
0.8519199999999255,1.0,24.0,55.0,or,2300.0,0,1,1,1
0.7353400000000838,1.0,24.0,56.0,or,2300.0,1,0,1,0
0.7178799999998883,1.0,24.0,57.0,or,2300.0,1,0,0,0
0.6012199999999721,1.0,24.0,58.0,or,2300.0,1,0,1,1
0.6319399999999441,1.0,24.0,59.0,mov,2300.0,1,1,1,1
1.1404399999999442,1.0,24.0,60.0,or,2300.0,0,1,0,1
0.9127399999999908,1.0,24.0,61.0,or,2300.0,0,0,1,1
0.9263200000000944,1.0,24.0,62.0,mov,2300.0,0,1,0,0
0.7952399999999907,1.0,24.0,63.0,mov,2300.0,0,0,1,1
1.1282600000000094,1.0,24.0,64.0,or,2300.0,0,1,1,1
0.7574599999999627,1.0,24.0,65.0,mov,2300.0,1,1,1,0
0.7863400000000839,1.0,24.0,66.0,mov,2300.0,1,0,0,0
1.3906999999999534,1.0,24.0,67.0,mov,2300.0,0,0,1,0
0.7323400000000838,1.0,24.0,68.0,mov,2300.0,1,0,1,0
0.5361200000001117,1.0,24.0,69.0,mov,2300.0,1,0,1,1
0.6453999999999068,1.0,24.0,70.0,or,2300.0,1,1,0,0
0.802939999999915,1.0,24.0,71.0,or,2300.0,1,0,0,0
0.9281000000000932,1.0,24.0,72.0,mov,2300.0,1,1,0,0
1.1325400000000372,1.0,24.0,73.0,mov,2300.0,0,0,1,0
0.698719999999972,1.0,24.0,74.0,mov,2300.0,0,0,1,1
0.7428999999999069,1.0,24.0,75.0,or,2300.0,1,1,1,0
0.7403600000001025,1.0,24.0,76.0,mov,2300.0,0,1,0,1
1.0258999999999068,1.0,24.0,77.0,or,2300.0,1,1,0,1
0.4626399999998976,1.0,24.0,78.0,or,2300.0,1,0,1,1
0.5546000000000931,1.0,24.0,79.0,or,2300.0,1,0,0,0
0.573799999904586,1.0,27.0,0.0,or,2600.0,1,0,0,0
0.677799999904586,1.0,27.0,1.0,or,2600.0,1,0,1,1
0.833600000047707,1.0,27.0,2.0,or,2600.0,0,0,1,0
0.6134999999046559,1.0,27.0,3.0,or,2600.0,0,0,1,1
0.8933000000000484,1.0,27.0,4.0,mov,2600.0,1,1,0,1
0.6054999999046559,1.0,27.0,5.0,or,2600.0,1,1,0,0
1.160999999904656,1.0,27.0,6.0,mov,2600.0,0,1,0,1
0.557100000047707,-1.0,27.0,7.0,mov,2600.0,1,0,0,1
1.0363000000476603,-1.0,27.0,8.0,mov,2600.0,0,0,0,1
1.0962999999523162,1.0,27.0,9.0,or,2600.0,1,1,0,1
0.7884000000000233,1.0,27.0,10.0,mov,2600.0,0,1,0,1
1.3360999999523628,1.0,27.0,11.0,mov,2600.0,0,0,1,1
0.8758000000476605,1.0,27.0,12.0,or,2600.0,0,1,0,0
0.7517999999523236,1.0,27.0,13.0,or,2600.0,0,0,0,0
0.8718000000000465,1.0,27.0,14.0,mov,2600.0,1,1,1,0
0.7794999999522697,1.0,27.0,15.0,or,2600.0,0,1,1,0
0.7720999999999767,1.0,27.0,16.0,or,2600.0,1,0,0,1
0.7272999999523235,1.0,27.0,17.0,mov,2600.0,1,1,0,0
0.5951999999999534,1.0,27.0,18.0,or,2600.0,1,1,1,1
1.126899999952293,1.0,27.0,19.0,mov,2600.0,0,1,1,0
1.3827999999523235,1.0,27.0,20.0,mov,2600.0,0,0,1,1
0.8153000000000465,1.0,27.0,21.0,or,2600.0,1,1,1,0
0.9226000000953208,1.0,27.0,22.0,mov,2600.0,0,1,0,1
0.982399999952293,1.0,27.0,23.0,mov,2600.0,0,0,1,1
0.9388000000953908,1.0,27.0,24.0,or,2600.0,0,1,0,0
0.922700000095414,1.0,27.0,25.0,mov,2600.0,0,1,0,0
0.9981000000953208,-1.0,27.0,26.0,mov,2600.0,0,0,1,1
1.2100999999999766,1.0,27.0,27.0,mov,2600.0,1,0,1,0
0.533299999904586,1.0,27.0,28.0,mov,2600.0,1,0,1,1
0.917700000095414,1.0,27.0,29.0,or,2600.0,1,1,1,1
1.5853000000476605,1.0,27.0,30.0,or,2600.0,0,0,1,0
0.9097000000476836,1.0,27.0,31.0,or,2600.0,0,0,1,1
0.8011999999523396,1.0,27.0,32.0,mov,2600.0,0,1,1,1
0.6449999999522843,1.0,27.0,33.0,or,2600.0,1,1,1,0
0.5407999999523163,1.0,27.0,34.0,or,2600.0,1,0,0,0
0.8566999999523396,-1.0,27.0,35.0,mov,2600.0,0,1,1,0
1.040699999999968,1.0,27.0,36.0,or,2600.0,0,1,0,0
1.2408000000476604,1.0,27.0,37.0,mov,2600.0,0,1,1,1
1.0005,1.0,27.0,38.0,mov,2600.0,0,0,0,0
0.5643000000953907,1.0,27.0,39.0,mov,2600.0,1,0,0,1
0.7403999999046791,1.0,27.0,40.0,or,2600.0,0,1,0,1
0.732,1.0,27.0,41.0,or,2600.0,0,0,0,0
0.8319000000000233,1.0,27.0,42.0,or,2600.0,1,0,0,1
0.9033999999046792,1.0,27.0,43.0,mov,2600.0,1,1,1,1
0.9841999999999534,1.0,27.0,44.0,or,2600.0,0,1,0,1
1.727399999952293,1.0,27.0,45.0,mov,2600.0,0,1,0,0
0.8709000000000233,1.0,27.0,46.0,or,2600.0,0,1,1,1
1.5391999999999535,1.0,27.0,47.0,mov,2600.0,0,1,1,1
1.107,1.0,27.0,48.0,mov,2600.0,1,0,0,1
0.6549000000000232,1.0,27.0,49.0,mov,2600.0,1,0,0,0
0.6264999999046559,1.0,27.0,50.0,mov,2600.0,1,0,1,1
0.6341999999999535,1.0,27.0,51.0,or,2600.0,0,1,1,0
0.5543000000953907,1.0,27.0,52.0,or,2600.0,0,0,0,0
1.0298999999046792,-1.0,27.0,53.0,mov,2600.0,0,1,0,0
0.8738000000476605,1.0,27.0,54.0,or,2600.0,0,1,1,1
1.165799999904586,1.0,27.0,55.0,mov,2600.0,1,1,0,1
0.6940000000953441,1.0,27.0,56.0,or,2600.0,1,1,1,1
1.645700000095414,1.0,27.0,57.0,mov,2600.0,1,1,0,0
0.9975999999523628,1.0,27.0,58.0,mov,2600.0,1,0,1,1
0.709399999952293,-1.0,27.0,59.0,mov,2600.0,0,0,1,0
0.737100000047678,1.0,27.0,60.0,or,2600.0,1,1,0,1
0.7249000000476371,1.0,27.0,61.0,or,2600.0,0,0,1,0
1.540799999904586,1.0,27.0,62.0,mov,2600.0,0,1,0,0
1.228899999952293,1.0,27.0,63.0,or,2600.0,0,1,1,1
0.6965000000477303,1.0,27.0,64.0,or,2600.0,1,0,0,1
1.9284000000476371,1.0,27.0,65.0,mov,2600.0,0,1,1,0
1.2402000000476838,1.0,27.0,66.0,mov,2600.0,1,0,1,0
1.0158999999999945,1.0,27.0,67.0,mov,2600.0,0,0,0,1
2.0876999999999533,1.0,27.0,68.0,mov,2600.0,1,0,1,0
1.0240000000477305,1.0,27.0,69.0,or,2600.0,1,1,0,0
1.0279999999522698,1.0,27.0,70.0,mov,2600.0,1,1,0,0
0.7476999999523105,1.0,27.0,71.0,or,2600.0,1,1,1,1
1.167899999904679,1.0,27.0,72.0,mov,2600.0,0,1,1,0
1.2795999999999768,1.0,27.0,73.0,mov,2600.0,0,0,0,0
1.1315999999999766,1.0,27.0,74.0,or,2600.0,0,1,0,0
1.0270000000477302,1.0,27.0,75.0,mov,2600.0,1,1,1,0
1.1429999999522698,1.0,27.0,76.0,mov,2600.0,0,0,1,0
0.5986999999046093,1.0,27.0,77.0,or,2600.0,1,1,1,0
1.0825999999046323,1.0,27.0,78.0,or,2600.0,1,0,1,1
1.406299999904586,1.0,27.0,79.0,mov,2600.0,1,1,0,0
1.2579999999046558,1.0,27.0,0.0,mov,2600.0,0,0,1,0
0.717700000095414,1.0,27.0,1.0,mov,2600.0,1,0,0,1
1.6139999999522696,1.0,27.0,2.0,mov,2600.0,0,0,0,1
1.2255999999046323,1.0,27.0,3.0,or,2600.0,0,1,0,0
0.8974999999046559,1.0,27.0,4.0,mov,2600.0,1,1,0,1
0.6415000000477303,1.0,27.0,5.0,or,2600.0,1,1,0,0
1.065500000095344,-1.0,27.0,6.0,mov,2600.0,0,1,1,0
1.0529999999046558,1.0,27.0,7.0,or,2600.0,0,1,0,0
0.7928999999046827,1.0,27.0,8.0,or,2600.0,0,0,1,1
0.7448000000000502,1.0,27.0,9.0,mov,2600.0,1,1,1,0
1.0650999999999766,1.0,27.0,10.0,mov,2600.0,1,0,1,1
0.8406999999523396,1.0,27.0,11.0,mov,2600.0,1,0,1,1
0.6405999999523628,1.0,27.0,12.0,or,2600.0,1,1,0,0
0.772399999952293,1.0,27.0,13.0,or,2600.0,1,0,0,0
0.6362999999523162,1.0,27.0,14.0,or,2600.0,0,0,1,0
0.5880000000477302,1.0,27.0,15.0,or,2600.0,0,0,1,1
0.5994999999522698,1.0,27.0,16.0,or,2600.0,1,0,1,0
1.2200000000953442,1.0,27.0,17.0,mov,2600.0,0,1,0,1
0.6317999999523163,1.0,27.0,18.0,or,2600.0,0,1,0,0
1.0235999999523628,1.0,27.0,19.0,mov,2600.0,0,1,0,0
0.503299999904586,1.0,27.0,20.0,mov,2600.0,1,0,1,0
0.9030999999999768,1.0,27.0,21.0,mov,2600.0,0,0,0,1
1.4147999999523162,1.0,27.0,22.0,or,2600.0,0,1,0,0
0.8706000000953209,1.0,27.0,23.0,mov,2600.0,1,1,1,0
0.8225999999046326,1.0,27.0,24.0,or,2600.0,0,1,1,0
1.0905999999046323,1.0,27.0,25.0,mov,2600.0,0,1,1,1
0.522600000047707,1.0,27.0,26.0,or,2600.0,1,1,0,1
1.138100000095321,1.0,27.0,27.0,or,2600.0,1,0,0,0
0.6940999999999767,1.0,27.0,28.0,or,2600.0,0,0,1,0
0.6418999999046646,1.0,27.0,29.0,mov,2600.0,1,1,1,0
0.7345000000477158,1.0,27.0,30.0,mov,2600.0,1,0,0,0
0.7536000000953209,1.0,27.0,31.0,mov,2600.0,0,0,0,1
0.7377000000476691,1.0,27.0,32.0,or,2600.0,0,1,1,1
1.1773999999046645,1.0,27.0,33.0,mov,2600.0,0,1,0,0
0.7056000000953209,1.0,27.0,34.0,mov,2600.0,1,0,1,0
0.5619000000953529,1.0,27.0,35.0,mov,2600.0,0,0,1,0
0.8212999999523017,1.0,27.0,36.0,or,2600.0,0,1,1,1
0.6888999999046646,1.0,27.0,37.0,or,2600.0,1,0,0,1
0.5089000000476371,1.0,27.0,38.0,or,2600.0,1,0,1,1
0.6243000000952743,1.0,27.0,39.0,or,2600.0,1,0,0,0
0.5089000000953529,1.0,27.0,40.0,or,2600.0,1,0,1,1
0.8251000000475905,1.0,27.0,41.0,or,2600.0,0,0,0,1
0.532700000095414,1.0,27.0,42.0,or,2600.0,1,0,1,0
0.7966999999047257,1.0,27.0,43.0,mov,2600.0,0,1,0,1
0.4845999999046326,1.0,27.0,44.0,or,2600.0,1,1,1,0
0.7843999999999068,1.0,27.0,45.0,or,2600.0,1,0,1,1
0.9445999999523628,1.0,27.0,46.0,mov,2600.0,1,1,0,0
1.276,1.0,27.0,47.0,mov,2600.0,0,0,1,0
0.624,1.0,27.0,48.0,mov,2600.0,1,0,0,1
0.5278999999046792,1.0,27.0,49.0,or,2600.0,1,1,1,1
1.523800000047777,1.0,27.0,50.0,or,2600.0,0,0,1,0
1.0039000000953675,1.0,27.0,51.0,mov,2600.0,0,1,0,0
0.5753000000952743,1.0,27.0,52.0,or,2600.0,1,1,0,1
0.911200000095414,1.0,27.0,53.0,mov,2600.0,1,1,0,0
0.9271000000000932,1.0,27.0,54.0,mov,2600.0,1,0,1,1
1.0269999999045394,1.0,27.0,55.0,or,2600.0,1,1,1,1
1.670700000095414,1.0,27.0,56.0,or,2600.0,0,0,1,0
0.9145,1.0,27.0,57.0,mov,2600.0,0,1,1,1
1.2227999999523165,1.0,27.0,58.0,mov,2600.0,1,0,1,0
0.5702999999523163,1.0,27.0,59.0,or,2600.0,1,1,0,0
0.7332999999523163,1.0,27.0,60.0,mov,2600.0,1,1,0,0
0.6666000000953208,1.0,27.0,61.0,mov,2600.0,0,0,0,1
0.6100999999046326,1.0,27.0,62.0,mov,2600.0,1,0,0,1
0.613700000095414,1.0,27.0,63.0,mov,2600.0,1,0,0,0
0.8978000000000466,1.0,27.0,64.0,or,2600.0,1,1,1,1
2.025800000047748,-1.0,27.0,65.0,mov,2600.0,0,1,0,1
0.9773000000952744,1.0,27.0,66.0,mov,2600.0,0,0,0,0
0.7454999999045394,1.0,27.0,67.0,mov,2600.0,0,0,1,1
1.6134000000476372,1.0,27.0,68.0,or,2600.0,0,1,1,1
0.5131999999046966,1.0,27.0,69.0,or,2600.0,1,0,0,1
0.4488000000952743,1.0,27.0,70.0,or,2600.0,1,0,0,0
0.9209000000476372,1.0,27.0,71.0,or,2600.0,0,0,0,1
0.8448999999523803,1.0,27.0,72.0,mov,2600.0,0,1,1,1
0.6244000000953674,1.0,27.0,73.0,mov,2600.0,1,0,0,1
0.4958000000000466,1.0,27.0,74.0,mov,2600.0,1,0,1,1
0.7721000000000641,-1.0,27.0,75.0,mov,2600.0,0,0,1,0
0.5759000000953675,1.0,27.0,76.0,or,2600.0,1,1,1,0
0.5845999999046325,1.0,27.0,77.0,mov,2600.0,1,1,1,1
1.2518000000000469,1.0,27.0,78.0,mov,2600.0,0,0,1,0
0.9034999999522696,1.0,27.0,79.0,or,2600.0,1,1,1,0
0.7557999999523163,1.0,27.0,0.0,mov,2600.0,1,1,0,0
1.2038000000000466,1.0,27.0,1.0,or,2600.0,0,1,0,1
1.3315000000954609,1.0,27.0,2.0,mov,2600.0,0,1,0,0
0.9276000000953208,1.0,27.0,3.0,mov,2600.0,1,0,1,0
1.1913000000952745,1.0,27.0,4.0,mov,2600.0,0,0,1,0
0.8231999999999534,1.0,27.0,5.0,mov,2600.0,1,0,0,1
0.5866999999047293,1.0,27.0,6.0,mov,2600.0,1,0,0,0
0.9029000000953674,1.0,27.0,7.0,or,2600.0,1,1,0,0
0.7026000000475906,1.0,27.0,8.0,or,2600.0,0,0,1,0
0.7905999999523629,1.0,27.0,9.0,mov,2600.0,1,1,0,1
0.4985999999046325,1.0,27.0,10.0,or,2600.0,1,1,0,0
0.6185,1.0,27.0,11.0,mov,2600.0,1,1,1,1
0.8621999999522232,1.0,27.0,12.0,or,2600.0,1,1,0,0
0.6779999999522697,1.0,27.0,13.0,mov,2600.0,1,1,1,1
0.7458000000477768,1.0,27.0,14.0,or,2600.0,1,1,1,1
0.5499000000953674,1.0,27.0,15.0,or,2600.0,1,0,1,1
1.045700000095414,1.0,27.0,16.0,or,2600.0,0,0,0,1
0.6097000000476838,1.0,27.0,17.0,or,2600.0,0,0,0,0
0.8491000000475906,1.0,27.0,18.0,mov,2600.0,0,1,1,1
0.4813000000000466,1.0,27.0,19.0,or,2600.0,1,1,1,0
0.897200000095414,1.0,27.0,20.0,mov,2600.0,1,1,0,0
0.4888000000477768,1.0,27.0,21.0,or,2600.0,1,1,0,0
1.340699999952223,1.0,27.0,22.0,mov,2600.0,0,1,0,1
0.7568000000000465,1.0,27.0,23.0,or,2600.0,1,1,0,1
0.8366000000953209,1.0,27.0,24.0,or,2600.0,1,0,0,0
1.0564000000953675,-1.0,27.0,25.0,or,2600.0,0,0,0,1
0.5361000000475906,1.0,27.0,26.0,or,2600.0,1,0,0,1
0.600299999904586,1.0,27.0,27.0,or,2600.0,1,0,1,1
1.048100000000093,1.0,27.0,28.0,mov,2600.0,1,1,0,0
1.451699999952223,1.0,27.0,29.0,mov,2600.0,0,0,1,0
0.6358000000000466,-1.0,27.0,30.0,or,2600.0,0,1,1,1
0.7032999999046006,1.0,27.0,31.0,or,2600.0,0,0,0,0
0.9355000000000144,1.0,27.0,32.0,mov,2600.0,0,1,0,0
0.6473000000000466,1.0,27.0,33.0,or,2600.0,1,1,0,1
0.8028999999046791,1.0,27.0,34.0,mov,2600.0,0,1,0,1
0.7509999999522843,1.0,27.0,35.0,or,2600.0,0,1,1,1
1.0191000000000932,1.0,27.0,36.0,mov,2600.0,0,1,0,0
1.6105000000477303,1.0,27.0,37.0,mov,2600.0,1,0,1,0
0.6146999999999679,1.0,27.0,38.0,mov,2600.0,1,0,0,0
1.2582999999523308,1.0,27.0,39.0,mov,2600.0,0,0,0,1
0.846400000095382,1.0,27.0,40.0,mov,2600.0,0,0,0,0
1.2939999999522698,1.0,27.0,41.0,mov,2600.0,0,0,1,1
0.5696999999047258,1.0,27.0,42.0,mov,2600.0,0,0,1,1
0.6097999999523163,1.0,27.0,43.0,mov,2600.0,1,0,1,0
0.6216999999522231,1.0,27.0,44.0,mov,2600.0,1,0,0,0
0.5378000000000466,1.0,27.0,45.0,mov,2600.0,1,0,0,0
0.8693999999524095,1.0,27.0,46.0,or,2600.0,1,1,1,1
0.665,-1.0,27.0,47.0,or,2600.0,0,0,0,1
0.5533000000952742,1.0,27.0,48.0,or,2600.0,1,0,1,0
0.9971999999999536,1.0,27.0,49.0,mov,2600.0,0,1,0,1
0.6287000000476837,1.0,27.0,50.0,or,2600.0,1,1,1,0
0.4567999999523163,1.0,27.0,51.0,or,2600.0,1,0,1,1
0.8006999999999534,1.0,27.0,52.0,mov,2600.0,0,1,1,0
1.048300000047777,1.0,27.0,53.0,or,2600.0,0,1,0,0
0.6721000000000932,1.0,27.0,54.0,or,2600.0,0,0,1,1
0.592200000095414,1.0,27.0,55.0,or,2600.0,1,0,1,0
0.5279000000476372,1.0,27.0,56.0,or,2600.0,0,0,1,0
1.2916999999047256,1.0,27.0,57.0,mov,2600.0,1,1,1,0
0.9197000000476836,1.0,27.0,58.0,mov,2600.0,0,0,0,1
0.6553999999999359,1.0,27.0,59.0,or,2600.0,1,1,0,1
0.731799999904586,1.0,27.0,60.0,mov,2600.0,1,1,0,0
1.2272999999523162,1.0,27.0,61.0,mov,2600.0,0,0,1,0
0.6111000000953208,1.0,27.0,62.0,or,2600.0,1,1,0,1
0.6426999999999534,1.0,27.0,63.0,or,2600.0,1,0,0,0
0.5791000000953208,1.0,27.0,64.0,or,2600.0,1,0,1,1
0.8826000000476197,1.0,27.0,65.0,mov,2600.0,0,1,1,0
0.6824999999522697,1.0,27.0,66.0,mov,2600.0,1,0,0,1
1.4906000000953208,1.0,27.0,67.0,mov,2600.0,0,0,0,1
1.4903999999524091,1.0,27.0,68.0,mov,2600.0,0,0,1,1
1.2021999999522524,1.0,27.0,69.0,or,2600.0,0,1,0,0
1.1860000000477302,1.0,27.0,70.0,mov,2600.0,0,1,1,1
1.1741000000953208,1.0,27.0,71.0,or,2600.0,0,1,0,0
1.5097000000476837,1.0,27.0,72.0,or,2600.0,1,0,0,1
1.0976999999522523,1.0,27.0,73.0,mov,2600.0,1,1,0,0
1.0693000000000463,1.0,27.0,74.0,mov,2600.0,0,0,0,1
0.9453999999524094,1.0,27.0,75.0,or,2600.0,1,1,1,0
1.200899999999936,1.0,27.0,76.0,mov,2600.0,1,1,1,1
1.3771999999999534,1.0,27.0,77.0,or,2600.0,0,1,0,1
0.8769000000476371,1.0,27.0,78.0,or,2600.0,1,0,1,0
1.4526999999047256,1.0,27.0,79.0,or,2600.0,1,0,0,0
1.1189999999045397,1.0,27.0,0.0,mov,2600.0,0,1,1,0
0.6071999999999534,1.0,27.0,1.0,mov,2600.0,1,0,0,1
0.7629000000953674,1.0,27.0,2.0,mov,2600.0,1,0,0,0
0.7629000000953674,1.0,27.0,3.0,or,2600.0,1,1,0,0
0.7265999999523628,1.0,27.0,4.0,mov,2600.0,1,1,0,0
1.134400000047637,1.0,27.0,5.0,mov,2600.0,0,0,0,1
0.6660999999046325,1.0,27.0,6.0,or,2600.0,1,1,1,0
0.6061999999522232,1.0,27.0,7.0,mov,2600.0,1,1,1,1
1.0659000000476335,1.0,27.0,8.0,or,2600.0,0,1,0,1
0.7858999999524131,1.0,27.0,9.0,or,2600.0,0,0,1,1
1.1177000000476838,1.0,27.0,10.0,mov,2600.0,1,1,0,1
0.809299999904586,1.0,27.0,11.0,or,2600.0,0,1,0,1
0.6855000000954605,1.0,27.0,12.0,or,2600.0,0,0,1,1
0.7009000000953675,1.0,27.0,13.0,or,2600.0,1,0,1,0
0.9489999999045394,-1.0,27.0,14.0,mov,2600.0,0,1,1,0
1.0928000000000466,1.0,27.0,15.0,mov,2600.0,1,0,1,0
1.2248000000477768,1.0,27.0,16.0,mov,2600.0,0,0,0,1
0.8366000000475906,1.0,27.0,17.0,or,2600.0,1,1,1,0
0.8168999999999069,1.0,27.0,18.0,or,2600.0,0,0,1,0
1.384400000047637,1.0,27.0,19.0,mov,2600.0,0,1,0,0
1.0205000000954605,1.0,27.0,20.0,mov,2600.0,0,0,1,1
0.6877000000476837,1.0,27.0,21.0,or,2600.0,1,1,0,1
1.2561000000953209,1.0,27.0,22.0,or,2600.0,0,0,0,1
1.2001000000953208,1.0,27.0,23.0,mov,2600.0,1,1,1,0
1.1274999999045394,1.0,27.0,24.0,mov,2600.0,1,0,0,0
0.8354999999045394,1.0,27.0,25.0,or,2600.0,0,1,0,1
1.011299999904586,1.0,27.0,26.0,mov,2600.0,1,1,0,1
1.0031000000475905,1.0,27.0,27.0,mov,2600.0,1,0,0,0
0.9111999999522232,1.0,27.0,28.0,mov,2600.0,0,0,0,1
1.0435000000477304,1.0,27.0,29.0,mov,2600.0,1,0,0,1
0.6830000000954606,1.0,27.0,30.0,mov,2600.0,1,0,1,1
0.8105000000000145,1.0,27.0,31.0,mov,2600.0,0,0,1,0
0.714700000095414,1.0,27.0,32.0,mov,2600.0,0,0,0,0
0.6301999999047257,1.0,27.0,33.0,mov,2600.0,1,0,1,0
0.6063000000477768,1.0,27.0,34.0,mov,2600.0,1,0,1,1
0.7582000000476983,1.0,27.0,35.0,or,2600.0,1,1,0,0
0.9658999999046792,1.0,27.0,36.0,mov,2600.0,0,1,1,0
0.5776999999047256,1.0,27.0,37.0,or,2600.0,1,1,0,1
1.409899999952409,1.0,27.0,38.0,or,2600.0,0,0,0,1
0.8497000000476983,1.0,27.0,39.0,mov,2600.0,1,1,0,1
1.1612999999046003,1.0,27.0,40.0,or,2600.0,0,1,0,1
2.1856999999999536,-1.0,27.0,41.0,mov,2600.0,0,1,1,1
0.6451000000000932,1.0,27.0,42.0,or,2600.0,0,1,1,1
1.5009999999045394,1.0,27.0,43.0,or,2600.0,0,0,1,1
0.5566999999999535,1.0,27.0,44.0,or,2600.0,0,0,1,1
0.5846999999047257,1.0,27.0,45.0,or,2600.0,1,0,1,0
1.0364999999045394,1.0,27.0,46.0,or,2600.0,0,0,0,1
1.4643000000000466,1.0,27.0,47.0,mov,2600.0,0,1,1,1
0.6171999999999535,1.0,27.0,48.0,or,2600.0,0,1,0,0
0.6163000000952743,-1.0,27.0,49.0,mov,2600.0,0,1,1,1
1.2278999999046791,1.0,27.0,50.0,mov,2600.0,1,0,1,0
1.0079000000476372,1.0,27.0,51.0,or,2600.0,1,1,1,1
1.2873999999524095,1.0,27.0,52.0,mov,2600.0,1,1,1,1
1.7196999999522231,1.0,27.0,53.0,mov,2600.0,0,0,0,1
0.7033000000000466,1.0,27.0,54.0,or,2600.0,0,1,0,0
1.0234999999522698,1.0,27.0,55.0,mov,2600.0,0,1,0,0
0.6908000000477769,1.0,27.0,56.0,or,2600.0,0,1,1,1
0.9916000000476196,1.0,27.0,57.0,mov,2600.0,0,1,0,0
0.7029999999522697,1.0,27.0,58.0,or,2600.0,1,1,0,1
0.6955000000477303,1.0,27.0,59.0,mov,2600.0,0,1,0,1
1.2751000000000932,1.0,27.0,60.0,or,2600.0,1,1,1,0
0.8231000000000931,1.0,27.0,61.0,mov,2600.0,1,1,1,1
0.9468999999046792,1.0,27.0,62.0,mov,2600.0,1,0,1,1
0.7828999999046792,1.0,27.0,63.0,or,2600.0,1,1,0,0
1.0788999999524094,1.0,27.0,64.0,or,2600.0,1,0,1,1
0.5901999999522523,1.0,27.0,65.0,or,2600.0,1,0,1,1
1.0264999999045683,1.0,27.0,66.0,or,2600.0,0,0,1,0
0.8665000000477303,1.0,27.0,67.0,mov,2600.0,0,1,1,1
0.8736999999522522,1.0,27.0,68.0,or,2600.0,1,1,1,0
0.9098000000000466,1.0,27.0,69.0,mov,2600.0,1,1,0,0
0.8339000000476372,1.0,27.0,70.0,or,2600.0,1,1,0,0
0.6058999999524094,1.0,27.0,71.0,or,2600.0,1,0,0,0
0.6617999999523163,1.0,27.0,72.0,or,2600.0,0,0,1,0
0.7055999999523629,1.0,27.0,73.0,mov,2600.0,1,1,0,1
0.621200000095414,1.0,27.0,74.0,or,2600.0,0,1,1,0
0.6690000000954606,1.0,27.0,75.0,or,2600.0,1,0,1,0
0.6811000000476197,1.0,27.0,76.0,or,2600.0,1,0,1,1
0.792700000095414,1.0,27.0,77.0,mov,2600.0,1,1,0,0
0.5569999999522697,1.0,27.0,78.0,or,2600.0,1,1,1,1
0.7568000000477768,1.0,27.0,79.0,mov,2600.0,1,1,0,0
1.0353999999999068,1.0,37.0,0.0,or,1845.0,0,1,0,1
0.6066999999999534,1.0,37.0,1.0,or,1845.0,0,0,0,0
0.5348000000000466,1.0,37.0,2.0,or,1845.0,1,0,1,0
0.6191000000000931,1.0,37.0,3.0,or,1845.0,0,0,1,0
0.5135,1.0,37.0,4.0,or,1845.0,0,0,1,1
1.1308000000000469,1.0,37.0,5.0,mov,1845.0,0,1,0,0
1.0219999999999982,1.0,37.0,6.0,mov,1845.0,1,0,0,1
1.0135,1.0,37.0,7.0,mov,1845.0,0,0,0,1
0.8605999999998603,1.0,37.0,8.0,or,1845.0,0,1,0,0
0.5978999999999068,1.0,37.0,9.0,or,1845.0,1,0,1,0
0.6370999999998603,1.0,37.0,10.0,or,1845.0,1,0,0,0
0.9685,1.0,37.0,11.0,or,1845.0,0,0,1,0
0.6598000000000466,1.0,37.0,12.0,or,1845.0,0,0,0,0
0.619,1.0,37.0,13.0,mov,1845.0,1,1,1,0
0.8303000000000466,1.0,37.0,14.0,or,1845.0,0,1,0,1
0.7695999999998603,1.0,37.0,15.0,mov,1845.0,1,1,0,1
0.7868999999999069,1.0,37.0,16.0,mov,1845.0,1,0,0,0
0.9241999999999534,1.0,37.0,17.0,mov,1845.0,0,0,0,1
0.8073999999999069,1.0,37.0,18.0,or,1845.0,0,1,0,0
0.5746000000000931,1.0,37.0,19.0,or,1845.0,1,0,0,1
0.7080999999998603,1.0,37.0,20.0,mov,1845.0,1,1,1,1
0.6131999999999534,1.0,37.0,21.0,or,1845.0,1,1,0,0
0.5905,1.0,37.0,22.0,mov,1845.0,1,1,0,0
0.6457000000001862,1.0,37.0,23.0,mov,1845.0,1,0,1,1
0.5810999999998603,1.0,37.0,24.0,or,1845.0,1,1,0,0
0.9966000000000932,-1.0,37.0,25.0,mov,1845.0,0,1,1,0
0.6958000000000466,1.0,37.0,26.0,mov,1845.0,0,0,0,0
0.5669000000001397,1.0,37.0,27.0,or,1845.0,1,1,0,1
0.7963000000000465,1.0,37.0,28.0,mov,1845.0,1,1,1,1
0.7033999999999069,1.0,37.0,29.0,mov,1845.0,1,0,1,1
0.5468000000000466,1.0,37.0,30.0,mov,1845.0,1,0,0,0
0.6939000000001397,1.0,37.0,31.0,or,1845.0,0,1,1,0
0.6593999999999068,1.0,37.0,32.0,mov,1845.0,1,1,1,0
0.6846999999999535,1.0,37.0,33.0,or,1845.0,0,1,0,1
1.203899999999907,1.0,37.0,34.0,mov,1845.0,0,1,1,1
0.6531999999999535,1.0,37.0,35.0,mov,1845.0,1,0,1,0
1.0024000000001396,1.0,37.0,36.0,mov,1845.0,0,0,1,0
0.6296999999999534,1.0,37.0,37.0,mov,1845.0,0,0,0,0
0.8469000000001397,1.0,37.0,38.0,or,1845.0,0,1,0,0
0.7783000000000466,1.0,37.0,39.0,mov,1845.0,1,1,0,1
0.8936999999999534,1.0,37.0,40.0,mov,1845.0,1,0,1,1
0.7188000000000465,1.0,37.0,41.0,mov,1845.0,1,0,1,1
0.7121999999999534,1.0,37.0,42.0,or,1845.0,1,1,1,1
0.5373000000000465,1.0,37.0,43.0,or,1845.0,1,0,0,0
0.7726999999999534,1.0,37.0,44.0,mov,1845.0,1,1,0,0
0.63,1.0,37.0,45.0,or,1845.0,1,1,1,1
1.0993000000000466,1.0,37.0,46.0,mov,1845.0,0,1,1,0
0.7466999999999534,1.0,37.0,47.0,mov,1845.0,1,0,0,1
1.0398000000000465,1.0,37.0,48.0,mov,1845.0,0,0,1,0
0.5951999999999534,1.0,37.0,49.0,mov,1845.0,1,0,0,1
0.6783000000000465,1.0,37.0,50.0,or,1845.0,1,1,1,1
0.6456999999999534,1.0,37.0,51.0,mov,1845.0,0,1,1,0
0.6348999999999069,-1.0,37.0,52.0,or,1845.0,0,1,1,1
0.6621999999999534,1.0,37.0,53.0,mov,1845.0,0,1,0,0
1.1775999999998603,1.0,37.0,54.0,mov,1845.0,0,0,0,0
1.0448000000000466,1.0,37.0,55.0,or,1845.0,0,1,0,0
1.0720999999998604,1.0,37.0,56.0,or,1845.0,1,0,0,1
0.6092000000001863,1.0,37.0,57.0,or,1845.0,1,0,1,1
0.7105999999998603,1.0,37.0,58.0,or,1845.0,0,0,0,1
0.7918999999999069,1.0,37.0,59.0,mov,1845.0,1,1,1,0
0.7383000000000466,1.0,37.0,60.0,or,1845.0,1,1,0,0
0.8655,1.0,37.0,61.0,mov,1845.0,0,1,0,1
0.7269000000001397,1.0,37.0,62.0,mov,1845.0,0,0,1,1
0.718,1.0,37.0,63.0,or,1845.0,1,1,0,1
0.8013999999999069,1.0,37.0,64.0,mov,1845.0,1,1,0,0
0.6685999999998603,1.0,37.0,65.0,or,1845.0,0,1,1,0
0.6078999999999068,1.0,37.0,66.0,or,1845.0,1,0,0,1
0.6391999999999535,1.0,37.0,67.0,or,1845.0,0,0,1,0
0.4803999999999068,1.0,37.0,68.0,or,1845.0,1,0,0,1
0.5959000000001397,1.0,37.0,69.0,mov,1845.0,1,1,0,0
0.7190999999998603,1.0,37.0,70.0,mov,1845.0,0,0,0,1
0.6003000000000466,1.0,37.0,71.0,or,1845.0,0,1,1,1
0.6635999999998603,1.0,37.0,72.0,or,1845.0,0,0,0,0
0.6648999999999069,1.0,37.0,73.0,or,1845.0,1,0,1,0
1.0461999999999534,1.0,37.0,74.0,mov,1845.0,0,1,0,1
0.4753999999999068,1.0,37.0,75.0,mov,1845.0,0,0,0,0
0.4648000000000465,1.0,37.0,76.0,mov,1845.0,0,0,1,1
0.6998999999999068,1.0,37.0,77.0,mov,1845.0,1,0,1,0
0.5711999999999534,-1.0,37.0,78.0,or,1845.0,0,1,0,1
0.6825,1.0,37.0,79.0,or,1845.0,1,0,1,0
0.9088999999999068,1.0,37.0,0.0,mov,1845.0,1,1,1,1
0.9481999999999534,-1.0,37.0,1.0,or,1845.0,0,1,1,0
0.7515,1.0,37.0,2.0,or,1845.0,0,0,1,1
0.6508000000000466,1.0,37.0,3.0,mov,1845.0,1,1,1,0
0.83,1.0,37.0,4.0,mov,1845.0,1,0,0,0
0.5553000000000465,1.0,37.0,5.0,mov,1845.0,1,0,1,1
0.6646999999999517,1.0,37.0,6.0,or,1845.0,1,1,0,0
0.9639000000001396,1.0,37.0,7.0,mov,1845.0,0,1,0,1
0.9431999999999534,1.0,37.0,8.0,or,1845.0,0,1,0,0
0.5386000000000931,1.0,37.0,9.0,or,1845.0,0,0,0,0
0.7178000000000465,1.0,37.0,10.0,mov,1845.0,0,1,0,0
0.6491000000000932,1.0,37.0,11.0,mov,1845.0,1,0,0,1
0.6763000000000465,1.0,37.0,12.0,mov,1845.0,0,0,0,1
0.8076999999999535,1.0,37.0,13.0,mov,1845.0,0,0,0,0
0.8688000000000465,1.0,37.0,14.0,or,1845.0,1,1,1,0
0.6640999999998602,1.0,37.0,15.0,mov,1845.0,1,1,0,0
1.0014000000001395,1.0,37.0,16.0,mov,1845.0,0,0,1,0
0.7566999999999534,1.0,37.0,17.0,mov,1845.0,0,0,1,1
0.8081000000000931,1.0,37.0,18.0,mov,1845.0,0,0,0,0
0.6354000000001397,1.0,37.0,19.0,or,1845.0,1,1,1,0
0.8826000000000931,1.0,37.0,20.0,mov,1845.0,1,1,1,1
0.47,1.0,37.0,21.0,mov,1845.0,1,0,0,0
0.7690999999998603,1.0,37.0,22.0,or,1845.0,0,1,0,1
0.6465,1.0,37.0,23.0,or,1845.0,1,0,0,1
0.6455999999998603,1.0,37.0,24.0,or,1845.0,0,0,1,0
0.5388999999999069,1.0,37.0,25.0,or,1845.0,0,0,1,1
0.6324000000001397,1.0,37.0,26.0,mov,1845.0,1,1,0,1
0.5475,-1.0,37.0,27.0,mov,1845.0,0,0,0,1
0.6026999999999534,1.0,37.0,28.0,mov,1845.0,1,0,0,1
0.9441000000000932,1.0,37.0,29.0,or,1845.0,0,1,1,0
1.1793000000000466,1.0,37.0,30.0,or,1845.0,1,0,0,1
0.8105999999998603,1.0,37.0,31.0,or,1845.0,0,0,0,1
0.622,1.0,37.0,32.0,mov,1845.0,1,1,0,1
0.6950999999998603,1.0,37.0,33.0,mov,1845.0,0,0,1,0
0.6805,1.0,37.0,34.0,or,1845.0,1,1,1,0
0.5708999999999068,1.0,37.0,35.0,or,1845.0,1,0,1,1
0.5398999999999069,1.0,37.0,36.0,or,1845.0,1,0,0,0
0.7004000000001397,1.0,37.0,37.0,mov,1845.0,1,1,1,1
0.6295999999998603,1.0,37.0,38.0,mov,1845.0,1,0,1,1
0.6130999999998603,1.0,37.0,39.0,or,1845.0,1,1,1,1
0.4723000000000465,1.0,37.0,40.0,or,1845.0,1,0,0,0
0.6673999999999068,-1.0,37.0,41.0,mov,1845.0,0,1,0,1
1.300899999999907,1.0,37.0,42.0,or,1845.0,0,1,0,0
0.894,1.0,37.0,43.0,mov,1845.0,0,1,0,0
0.5673000000000465,1.0,37.0,44.0,mov,1845.0,0,0,0,0
0.7986000000000931,1.0,37.0,45.0,or,1845.0,1,1,1,0
0.9278999999999068,1.0,37.0,46.0,mov,1845.0,1,1,1,1
0.6971000000000931,1.0,37.0,47.0,or,1845.0,0,1,1,0
0.6805999999998603,1.0,37.0,48.0,mov,1845.0,1,1,1,0
0.7596999999999534,1.0,37.0,49.0,mov,1845.0,0,0,1,0
0.5711000000000931,1.0,37.0,50.0,mov,1845.0,0,0,0,0
0.8823000000000466,1.0,37.0,51.0,or,1845.0,0,1,1,1
0.6498000000000466,1.0,37.0,52.0,or,1845.0,1,0,0,1
0.753,1.0,37.0,53.0,mov,1845.0,1,1,1,1
0.7120999999998603,1.0,37.0,54.0,mov,1845.0,0,0,0,1
0.4594000000001397,1.0,37.0,55.0,mov,1845.0,0,0,1,1
0.6066999999999534,-1.0,37.0,56.0,or,1845.0,0,1,1,1
0.7318999999999068,1.0,37.0,57.0,or,1845.0,0,0,0,0
0.8811999999999535,1.0,37.0,58.0,mov,1845.0,1,1,0,1
0.6946000000000931,1.0,37.0,59.0,mov,1845.0,0,0,1,0
0.8439000000001396,1.0,37.0,60.0,mov,1845.0,0,0,1,1
0.693,1.0,37.0,61.0,or,1845.0,0,1,1,1
0.5544000000001397,1.0,37.0,62.0,or,1845.0,1,0,1,0
0.4816999999999534,1.0,37.0,63.0,or,1845.0,1,0,1,1
0.7028999999999068,1.0,37.0,64.0,or,1845.0,0,0,1,0
0.6962999999998137,1.0,37.0,65.0,or,1845.0,0,0,0,0
0.6115,1.0,37.0,66.0,or,1845.0,0,0,1,1
0.9129000000001396,1.0,37.0,67.0,mov,1845.0,1,1,1,0
0.7341000000000931,1.0,37.0,68.0,or,1845.0,1,1,0,0
0.5215,1.0,37.0,69.0,or,1845.0,1,0,0,0
0.7786000000000931,1.0,37.0,70.0,mov,1845.0,0,1,0,1
0.5918000000000465,1.0,37.0,71.0,mov,1845.0,0,0,1,1
0.7653000000000466,1.0,37.0,72.0,or,1845.0,0,1,1,1
0.8405,1.0,37.0,73.0,or,1845.0,1,0,0,1
0.8538000000000465,1.0,37.0,74.0,mov,1845.0,0,1,1,0
0.5731000000000931,1.0,37.0,75.0,mov,1845.0,1,0,0,1
0.5084000000001397,1.0,37.0,76.0,mov,1845.0,1,0,0,0
0.7596999999999534,1.0,37.0,77.0,or,1845.0,0,1,0,1
0.6908000000000466,1.0,37.0,78.0,or,1845.0,0,0,1,1
0.6121000000000931,1.0,37.0,79.0,mov,1845.0,1,1,1,0
1.3398000000000465,1.0,37.0,0.0,or,1845.0,0,1,0,1
0.539,1.0,37.0,1.0,or,1845.0,1,0,1,0
0.7381999999999534,1.0,37.0,2.0,mov,1845.0,0,1,1,0
0.7635,1.0,37.0,3.0,or,1845.0,0,1,1,1
0.9546999999999536,1.0,37.0,4.0,mov,1845.0,0,1,1,1
0.5581999999999534,1.0,37.0,5.0,or,1845.0,1,1,0,1
0.5034000000001415,1.0,37.0,6.0,or,1845.0,1,0,0,0
0.8006999999999534,1.0,37.0,7.0,mov,1845.0,0,1,1,0
0.646,1.0,37.0,8.0,or,1845.0,1,1,0,1
0.6870999999998603,1.0,37.0,9.0,mov,1845.0,1,1,0,0
0.6305999999998603,1.0,37.0,10.0,or,1845.0,1,1,0,0
1.0178999999999068,-1.0,37.0,11.0,or,1845.0,0,0,0,1
0.8721000000000931,1.0,37.0,12.0,or,1845.0,0,0,0,0
0.6434000000001397,1.0,37.0,13.0,or,1845.0,1,0,0,1
0.7986000000000931,1.0,37.0,14.0,or,1845.0,0,0,0,1
0.7998000000000466,1.0,37.0,15.0,mov,1845.0,1,1,1,0
0.6571000000000932,1.0,37.0,16.0,mov,1845.0,1,0,0,0
0.5465999999998603,1.0,37.0,17.0,mov,1845.0,1,0,0,0
0.6435999999998603,1.0,37.0,18.0,or,1845.0,1,1,0,0
0.625,1.0,37.0,19.0,or,1845.0,1,0,1,1
0.6343000000000466,1.0,37.0,20.0,mov,1845.0,1,1,1,1
0.9116000000000932,1.0,37.0,21.0,mov,1845.0,1,0,1,1
0.5368000000000466,1.0,37.0,22.0,mov,1845.0,1,0,1,1
0.6742999999998137,1.0,37.0,23.0,or,1845.0,0,1,1,0
0.6114000000001397,1.0,37.0,24.0,mov,1845.0,1,1,0,1
0.8366999999999535,1.0,37.0,25.0,mov,1845.0,0,0,1,0
0.606,1.0,37.0,26.0,mov,1845.0,0,0,1,1
0.6013000000000466,1.0,37.0,27.0,mov,1845.0,0,0,1,1
0.5886999999999535,1.0,37.0,28.0,mov,1845.0,1,0,1,0
0.592,1.0,37.0,29.0,mov,1845.0,0,0,0,1
0.7411999999999535,1.0,37.0,30.0,or,1845.0,0,1,0,0
0.6704000000001397,1.0,37.0,31.0,or,1845.0,1,0,1,0
0.6736999999999534,1.0,37.0,32.0,or,1845.0,0,0,0,1
0.5550999999998603,1.0,37.0,33.0,or,1845.0,0,0,0,0
0.7501999999999535,1.0,37.0,34.0,mov,1845.0,1,1,1,0
1.1815,1.0,37.0,35.0,mov,1845.0,0,0,1,0
0.9248000000000466,1.0,37.0,36.0,or,1845.0,0,1,1,1
0.7541000000000931,1.0,37.0,37.0,mov,1845.0,0,1,1,1
0.5735,1.0,37.0,38.0,or,1845.0,1,1,1,0
0.6046999999999534,1.0,37.0,39.0,or,1845.0,1,0,0,0
0.964,1.0,37.0,40.0,mov,1845.0,0,1,0,1
0.6091999999999534,1.0,37.0,41.0,mov,1845.0,1,0,0,1
0.5145999999998603,1.0,37.0,42.0,or,1845.0,1,1,0,0
1.1478000000000466,1.0,37.0,43.0,or,1845.0,0,0,1,0
0.8011999999999534,1.0,37.0,44.0,mov,1845.0,1,1,1,0
0.7361999999999534,1.0,37.0,45.0,mov,1845.0,1,0,1,1
0.7256000000000932,1.0,37.0,46.0,or,1845.0,1,1,1,1
0.617,1.0,37.0,47.0,or,1845.0,1,0,1,1
0.6701000000000932,1.0,37.0,48.0,or,1845.0,0,0,0,1
0.4875999999998603,1.0,37.0,49.0,or,1845.0,0,0,1,1
0.4948000000000466,1.0,37.0,50.0,or,1845.0,1,0,1,0
0.766,1.0,37.0,51.0,mov,1845.0,0,1,0,1
0.7213999999999069,1.0,37.0,52.0,mov,1845.0,1,0,0,1
0.9505999999998604,1.0,37.0,53.0,mov,1845.0,0,0,1,0
0.7499000000001397,1.0,37.0,54.0,or,1845.0,1,1,0,1
0.6151999999999535,1.0,37.0,55.0,mov,1845.0,1,1,0,0
0.6824000000001397,1.0,37.0,56.0,mov,1845.0,1,0,0,0
0.6678999999999069,1.0,37.0,57.0,or,1845.0,1,1,1,1
1.023,1.0,37.0,58.0,mov,1845.0,1,1,0,0
0.7603999999999068,1.0,37.0,59.0,or,1845.0,0,1,1,0
1.227600000000093,1.0,37.0,60.0,mov,1845.0,1,1,0,1
1.152800000000047,1.0,37.0,61.0,mov,1845.0,0,0,0,1
0.7001000000000931,1.0,37.0,62.0,mov,1845.0,0,0,0,0
0.5974000000001397,1.0,37.0,63.0,mov,1845.0,1,0,0,1
0.6566999999999534,1.0,37.0,64.0,mov,1845.0,1,0,0,0
0.9979000000001396,1.0,37.0,65.0,or,1845.0,0,1,1,0
0.6891999999999534,1.0,37.0,66.0,or,1845.0,0,0,1,1
0.7625999999998603,1.0,37.0,67.0,mov,1845.0,1,1,1,0
0.684,1.0,37.0,68.0,or,1845.0,0,1,0,1
0.5820999999998603,1.0,37.0,69.0,or,1845.0,1,0,0,1
0.4935,1.0,37.0,70.0,or,1845.0,1,0,0,0
0.9066000000000932,1.0,37.0,71.0,or,1845.0,1,0,1,1
0.6159000000001397,1.0,37.0,72.0,or,1845.0,1,0,1,1
1.5272999999998138,1.0,37.0,73.0,mov,1845.0,0,1,0,1
0.5705999999998603,1.0,37.0,74.0,mov,1845.0,0,0,0,0
0.8158000000000466,1.0,37.0,75.0,mov,1845.0,1,0,1,0
0.6869000000001397,1.0,37.0,76.0,or,1845.0,1,1,1,1
0.6623999999999068,1.0,37.0,77.0,mov,1845.0,1,1,0,0
0.9836999999999534,1.0,37.0,78.0,or,1845.0,0,1,0,1
0.4889000000001397,1.0,37.0,79.0,or,1845.0,1,0,0,1
0.92,1.0,37.0,0.0,mov,1845.0,1,1,0,0
0.6911999999999534,1.0,37.0,1.0,or,1845.0,0,1,1,0
0.6905,1.0,37.0,2.0,mov,1845.0,1,1,1,0
0.6116999999997206,1.0,37.0,3.0,or,1845.0,1,1,1,1
0.7391000000000931,1.0,37.0,4.0,mov,1845.0,1,1,0,0
0.9042999999998136,1.0,37.0,5.0,or,1845.0,0,1,0,1
0.5835999999998603,1.0,37.0,6.0,or,1845.0,1,0,0,1
0.7248999999999051,1.0,37.0,7.0,or,1845.0,0,0,0,1
0.6801999999999534,1.0,37.0,8.0,or,1845.0,0,0,0,0
0.7133999999999069,-1.0,37.0,9.0,mov,1845.0,0,1,0,0
0.6868999999999069,1.0,37.0,10.0,or,1845.0,0,1,0,0
0.7238999999999032,1.0,37.0,11.0,or,1845.0,0,0,1,1
0.6031999999997206,1.0,37.0,12.0,mov,1845.0,1,1,1,0
0.6584999999997672,1.0,37.0,13.0,or,1845.0,1,1,1,1
0.7937999999998138,1.0,37.0,14.0,or,1845.0,1,0,0,0
0.6050999999998603,1.0,37.0,15.0,mov,1845.0,1,1,0,0
0.6942999999998137,1.0,37.0,16.0,mov,1845.0,1,0,1,1
0.6476999999999534,1.0,37.0,17.0,mov,1845.0,1,0,1,1
0.511,1.0,37.0,18.0,or,1845.0,1,1,1,1
0.6341999999999535,1.0,37.0,19.0,mov,1845.0,1,1,1,1
0.5855999999998603,1.0,37.0,20.0,or,1845.0,1,1,0,0
0.7266999999997206,1.0,37.0,21.0,or,1845.0,0,0,1,0
0.6501999999999535,1.0,37.0,22.0,or,1845.0,0,0,0,0
0.8432999999998138,1.0,37.0,23.0,mov,1845.0,1,1,0,1
0.8205999999998603,1.0,37.0,24.0,or,1845.0,0,1,1,0
0.6517999999998138,1.0,37.0,25.0,or,1845.0,0,0,0,0
0.5291999999999535,1.0,37.0,26.0,or,1845.0,0,0,0,0
0.5085,1.0,37.0,27.0,or,1845.0,1,0,1,0
0.4597999999998137,1.0,37.0,28.0,or,1845.0,1,0,1,1
0.6810999999998603,-1.0,37.0,29.0,mov,1845.0,0,1,1,0
0.8263999999999069,1.0,37.0,30.0,or,1845.0,0,1,1,1
0.9755999999998604,1.0,37.0,31.0,mov,1845.0,0,1,0,0
0.6888999999999069,1.0,37.0,32.0,or,1845.0,1,1,1,0
0.7860999999998604,1.0,37.0,33.0,or,1845.0,0,0,1,0
0.6352999999998137,1.0,37.0,34.0,or,1845.0,1,0,0,1
0.7457999999998137,1.0,37.0,35.0,or,1845.0,0,0,1,0
0.8639999999997672,1.0,37.0,36.0,mov,1845.0,0,1,1,1
0.9822999999998138,1.0,37.0,37.0,or,1845.0,0,1,0,0
0.6755999999998603,1.0,37.0,38.0,or,1845.0,1,0,1,0
1.082899999999907,1.0,37.0,39.0,mov,1845.0,0,1,1,0
0.8621999999999534,1.0,37.0,40.0,or,1845.0,0,1,1,1
0.7813999999999068,1.0,37.0,41.0,mov,1845.0,0,1,1,1
0.6166999999999534,1.0,37.0,42.0,mov,1845.0,0,0,0,0
0.906,1.0,37.0,43.0,mov,1845.0,1,0,1,0
0.7172999999998138,1.0,37.0,44.0,mov,1845.0,1,0,1,1
0.9205000000000144,1.0,37.0,45.0,or,1845.0,0,1,1,0
0.5797999999998137,1.0,37.0,46.0,or,1845.0,0,0,1,1
0.6250999999998603,1.0,37.0,47.0,mov,1845.0,1,1,0,1
0.5843999999999069,1.0,37.0,48.0,mov,1845.0,1,0,1,1
0.5396999999999534,1.0,37.0,49.0,mov,1845.0,1,0,0,0
0.6288999999999069,1.0,37.0,50.0,or,1845.0,1,1,0,0
0.7642999999998137,1.0,37.0,51.0,mov,1845.0,0,1,1,0
0.6875000000000145,1.0,37.0,52.0,mov,1845.0,0,0,1,1
0.6707999999998138,1.0,37.0,53.0,or,1845.0,1,1,1,0
0.6420000000000146,1.0,37.0,54.0,or,1845.0,1,0,1,1
1.0932999999998136,1.0,37.0,55.0,or,1845.0,0,0,0,1
0.8046000000001077,1.0,37.0,56.0,mov,1845.0,0,1,0,0
1.1160000000000143,1.0,37.0,57.0,mov,1845.0,0,0,1,1
1.0233000000000465,1.0,37.0,58.0,mov,1845.0,0,0,1,1
0.6485000000000145,1.0,37.0,59.0,mov,1845.0,1,0,1,0
0.7637999999998137,1.0,37.0,60.0,mov,1845.0,0,0,1,0
0.6850000000000146,1.0,37.0,61.0,or,1845.0,1,1,1,0
0.6702999999998137,1.0,37.0,62.0,mov,1845.0,1,1,1,1
0.5635000000000145,1.0,37.0,63.0,or,1845.0,1,1,0,0
0.8728999999999069,1.0,37.0,64.0,or,1845.0,1,0,1,1
0.7341999999999534,1.0,37.0,65.0,mov,1845.0,0,1,1,0
0.5315,1.0,37.0,66.0,or,1845.0,0,1,0,0
0.6206999999999534,1.0,37.0,67.0,or,1845.0,1,0,0,1
0.63,1.0,37.0,68.0,mov,1845.0,1,1,0,0
0.7353999999999069,1.0,37.0,69.0,mov,1845.0,0,0,1,0
0.7885999999998603,1.0,37.0,70.0,or,1845.0,0,1,1,1
0.6217999999998137,1.0,37.0,71.0,mov,1845.0,1,1,0,1
0.6191999999999535,1.0,37.0,72.0,or,1845.0,1,1,1,1
1.1445,1.0,37.0,73.0,or,1845.0,0,0,0,1
0.7616999999999534,1.0,37.0,74.0,mov,1845.0,0,1,0,0
0.841,1.0,37.0,75.0,mov,1845.0,1,0,1,0
1.1442999999998138,1.0,37.0,76.0,or,1845.0,0,1,0,1
1.2655,1.0,37.0,77.0,mov,1845.0,1,1,1,0
0.6268999999999069,1.0,37.0,78.0,or,1845.0,1,1,0,0
0.6960999999998603,1.0,37.0,79.0,mov,1845.0,1,1,0,0
1.2225999999881023,1.0,41.0,0.0,mov,2300.0,0,1,0,1
1.0321999999940163,1.0,41.0,1.0,mov,2300.0,0,0,0,0
0.8226999999999535,-1.0,41.0,2.0,or,2300.0,0,1,0,0
1.0492999999821186,1.0,41.0,3.0,mov,2300.0,0,1,0,0
1.2341999999762048,1.0,41.0,4.0,mov,2300.0,0,0,1,1
0.7694999999761348,1.0,41.0,5.0,mov,2300.0,0,0,0,0
1.202699999988079,1.0,41.0,6.0,or,2300.0,0,1,1,1
1.0908000000000502,1.0,41.0,7.0,mov,2300.0,1,1,1,0
0.7814999999881292,1.0,41.0,8.0,mov,2300.0,1,0,0,0
1.3512999999761814,1.0,41.0,9.0,mov,2300.0,0,0,0,1
1.7689999999761348,1.0,41.0,10.0,or,2300.0,0,1,0,0
0.9499999999881292,1.0,41.0,11.0,mov,2300.0,1,1,0,1
1.2484999999881257,1.0,41.0,12.0,mov,2300.0,0,0,1,0
1.892299999988056,1.0,41.0,13.0,or,2300.0,0,1,1,1
0.9787999999821186,1.0,41.0,14.0,mov,2300.0,0,1,0,0
1.3120999999940397,1.0,41.0,15.0,or,2300.0,1,1,0,1
0.9342999999880558,1.0,41.0,16.0,mov,2300.0,0,1,0,1
1.022799999993993,1.0,41.0,17.0,mov,2300.0,1,0,1,0
1.1545999999940395,1.0,41.0,18.0,or,2300.0,1,1,1,1
1.0276999999880791,1.0,41.0,19.0,or,2300.0,1,0,0,0
1.2622999999821185,1.0,41.0,20.0,or,2300.0,0,0,0,1
1.0194000000000232,1.0,41.0,21.0,or,2300.0,0,0,1,1
0.7458999999761582,1.0,41.0,22.0,mov,2300.0,1,1,0,1
1.2386999999999535,1.0,41.0,23.0,mov,2300.0,0,0,0,1
1.2340999999999769,1.0,41.0,24.0,mov,2300.0,0,0,1,1
1.2000999999761115,1.0,41.0,25.0,or,2300.0,1,1,1,0
1.1799999999761348,1.0,41.0,26.0,mov,2300.0,1,1,1,1
1.3247999999880558,1.0,41.0,27.0,or,2300.0,0,1,1,0
0.9859999999881256,1.0,41.0,28.0,or,2300.0,0,0,1,1
0.994399999994086,1.0,41.0,29.0,or,2300.0,1,0,1,0
0.999399999976158,1.0,41.0,30.0,or,2300.0,0,0,1,0
1.154699999982142,1.0,41.0,31.0,or,2300.0,1,0,1,0
1.0030999999881025,-1.0,41.0,32.0,mov,2300.0,0,1,1,0
0.6865999999999767,1.0,41.0,33.0,mov,2300.0,1,0,1,0
1.475099999976126,1.0,41.0,34.0,or,2300.0,0,1,1,0
0.8647999999761814,1.0,41.0,35.0,or,2300.0,0,0,1,1
0.9720999999821652,1.0,41.0,36.0,or,2300.0,0,0,1,1
1.152299999988056,1.0,41.0,37.0,mov,2300.0,1,1,1,0
0.750899999988047,1.0,41.0,38.0,mov,2300.0,1,0,0,0
1.5875999999940396,1.0,41.0,39.0,or,2300.0,1,1,0,0
1.2538999999820952,1.0,41.0,40.0,mov,2300.0,0,1,0,1
1.1535999999940396,1.0,41.0,41.0,or,2300.0,1,1,1,0
0.9628000000000466,1.0,41.0,42.0,or,2300.0,1,0,1,1
1.2720999999821652,1.0,41.0,43.0,or,2300.0,1,0,0,0
1.1754999999940627,1.0,41.0,44.0,mov,2300.0,0,1,1,0
1.1681999999762047,1.0,41.0,45.0,mov,2300.0,0,0,1,1
0.8747999999761814,1.0,41.0,46.0,mov,2300.0,1,0,0,1
1.105499999982072,1.0,41.0,47.0,or,2300.0,1,1,1,1
0.9122999999880558,1.0,41.0,48.0,mov,2300.0,0,1,0,1
0.712499999982072,1.0,41.0,49.0,mov,2300.0,0,0,0,0
1.1338999999880326,1.0,41.0,50.0,or,2300.0,1,1,0,1
0.9072999999821186,1.0,41.0,51.0,or,2300.0,1,0,0,0
0.8036999999821419,1.0,41.0,52.0,mov,2300.0,1,1,0,0
1.119799999993993,1.0,41.0,53.0,mov,2300.0,1,0,0,0
0.7731999999821418,1.0,41.0,54.0,mov,2300.0,1,0,1,1
0.8722999999880557,1.0,41.0,55.0,or,2300.0,1,1,0,0
0.758699999988079,1.0,41.0,56.0,or,2300.0,1,0,0,0
0.8439000000000233,1.0,41.0,57.0,mov,2300.0,0,1,0,1
0.9176999999999534,1.0,41.0,58.0,mov,2300.0,1,0,1,0
1.0748000000000466,1.0,41.0,59.0,or,2300.0,0,1,1,0
1.2923999999880325,1.0,41.0,60.0,mov,2300.0,1,1,0,1
0.8295999999940395,1.0,41.0,61.0,mov,2300.0,0,0,0,1
0.6946999999999535,1.0,41.0,62.0,mov,2300.0,0,0,0,0
1.0216999999940453,1.0,41.0,63.0,or,2300.0,0,1,0,0
1.1805999999881025,1.0,41.0,64.0,or,2300.0,1,0,0,1
1.1038999999821244,1.0,41.0,65.0,or,2300.0,1,0,1,1
0.9746999999880792,1.0,41.0,66.0,or,2300.0,1,0,1,1
0.8772999999880849,1.0,41.0,67.0,mov,2300.0,1,1,0,0
0.8012999999821186,1.0,41.0,68.0,mov,2300.0,1,0,1,1
1.0668000000000466,1.0,41.0,69.0,or,2300.0,1,1,0,0
0.8534999999881256,1.0,41.0,70.0,or,2300.0,0,0,1,0
0.7850999999881023,1.0,41.0,71.0,mov,2300.0,1,1,1,0
0.936699999982142,1.0,41.0,72.0,or,2300.0,1,1,0,0
1.0365999999881024,1.0,41.0,73.0,mov,2300.0,1,1,0,0
0.7278999999821244,1.0,41.0,74.0,mov,2300.0,1,0,1,1
1.4524999999940629,1.0,41.0,75.0,or,2300.0,0,1,0,1
0.7663999999821244,1.0,41.0,76.0,or,2300.0,0,0,0,0
1.0303000000000466,1.0,41.0,77.0,or,2300.0,1,0,0,1
1.1227999999821183,1.0,41.0,78.0,or,2300.0,1,0,1,1
1.5005,1.0,41.0,79.0,mov,2300.0,0,1,1,0
1.4946999999940165,1.0,41.0,0.0,or,2300.0,0,1,1,1
1.0489999999761348,1.0,41.0,1.0,mov,2300.0,1,1,0,1
0.8687999999761814,1.0,41.0,2.0,or,2300.0,1,1,1,1
0.7475999999821652,1.0,41.0,3.0,mov,2300.0,1,1,0,0
0.8894999999881257,1.0,41.0,4.0,mov,2300.0,1,0,0,0
0.8603999999761581,1.0,41.0,5.0,mov,2300.0,1,0,1,1
0.7275999999761116,1.0,41.0,6.0,mov,2300.0,1,0,0,0
1.3300999999761116,1.0,41.0,7.0,mov,2300.0,0,0,1,0
0.8407999999761814,1.0,41.0,8.0,mov,2300.0,1,0,0,1
1.2925999999999769,1.0,41.0,9.0,mov,2300.0,0,0,1,0
0.9123999999880325,1.0,41.0,10.0,mov,2300.0,0,0,0,0
1.0239999999881293,1.0,41.0,11.0,mov,2300.0,1,0,0,1
1.3363999999820952,1.0,41.0,12.0,mov,2300.0,0,0,1,0
1.5343999999761582,1.0,41.0,13.0,or,2300.0,0,1,1,1
0.9807999999881722,1.0,41.0,14.0,or,2300.0,0,0,1,1
0.9801000000000932,1.0,41.0,15.0,or,2300.0,1,0,0,1
1.313799999976065,1.0,41.0,16.0,mov,2300.0,0,1,1,0
0.9934999999939464,1.0,41.0,17.0,mov,2300.0,1,0,0,1
1.0253999999940862,1.0,41.0,18.0,mov,2300.0,0,0,0,1
1.305999999982072,1.0,41.0,19.0,or,2300.0,0,1,1,1
0.9168000000000466,1.0,41.0,20.0,mov,2300.0,1,1,1,0
1.5696999999941326,1.0,41.0,21.0,mov,2300.0,1,0,1,1
1.0461999999999534,1.0,41.0,22.0,or,2300.0,1,1,0,0
0.9340999999761116,1.0,41.0,23.0,mov,2300.0,0,1,0,1
1.367099999987986,1.0,41.0,24.0,or,2300.0,1,1,1,0
0.8500999999940395,1.0,41.0,25.0,mov,2300.0,1,1,0,0
0.8835999999879859,1.0,41.0,26.0,mov,2300.0,0,0,0,1
0.8181999999820255,1.0,41.0,27.0,mov,2300.0,0,0,0,0
0.6945999999821652,1.0,41.0,28.0,mov,2300.0,0,0,1,1
0.9968999999999067,1.0,41.0,29.0,or,2300.0,0,1,0,0
0.9256999999880792,1.0,41.0,30.0,or,2300.0,1,0,0,1
0.9579999999762367,1.0,41.0,31.0,or,2300.0,0,0,1,0
0.89119999998204,1.0,41.0,32.0,or,2300.0,1,0,1,0
0.8826999999820401,1.0,41.0,33.0,or,2300.0,1,0,0,0
1.0841999999762046,1.0,41.0,34.0,or,2300.0,0,0,1,0
0.8830999999940395,1.0,41.0,35.0,mov,2300.0,0,1,1,1
0.8578000000000465,1.0,41.0,36.0,mov,2300.0,0,0,0,0
1.1276999999762047,1.0,41.0,37.0,mov,2300.0,0,0,0,0
1.175699999994118,1.0,41.0,38.0,or,2300.0,0,1,0,0
0.9042999999760796,1.0,41.0,39.0,or,2300.0,0,0,0,0
1.02869999998204,1.0,41.0,40.0,or,2300.0,0,0,1,1
0.8679999999762367,1.0,41.0,41.0,mov,2300.0,1,1,1,0
0.95769999998204,1.0,41.0,42.0,mov,2300.0,1,0,1,1
0.9886999999999534,1.0,41.0,43.0,or,2300.0,1,1,0,0
0.9910999999940396,1.0,41.0,44.0,or,2300.0,0,0,0,1
0.9243999999821972,1.0,41.0,45.0,or,2300.0,0,0,0,0
1.1616999999762048,1.0,41.0,46.0,or,2300.0,1,0,0,1
1.036599999987986,1.0,41.0,47.0,or,2300.0,1,0,0,0
1.0141999999999534,1.0,41.0,48.0,or,2300.0,1,0,0,0
1.086600000000093,1.0,41.0,49.0,or,2300.0,0,0,0,1
1.0086999999999535,1.0,41.0,50.0,or,2300.0,0,0,0,0
1.105499999982072,1.0,41.0,51.0,mov,2300.0,1,1,0,1
0.8016999999941327,1.0,41.0,52.0,mov,2300.0,1,0,1,1
1.352399999994086,1.0,41.0,53.0,or,2300.0,1,1,1,1
1.0006999999941326,1.0,41.0,54.0,or,2300.0,1,0,1,1
0.9723000000000466,1.0,41.0,55.0,or,2300.0,0,0,0,1
1.3333999999880326,1.0,41.0,56.0,mov,2300.0,0,1,0,0
0.841499999982072,1.0,41.0,57.0,mov,2300.0,1,0,0,1
0.8416000000000932,1.0,41.0,58.0,mov,2300.0,1,0,0,0
1.140099999987986,1.0,41.0,59.0,or,2300.0,0,1,1,0
1.161399999999907,1.0,41.0,60.0,mov,2300.0,0,1,1,1
1.0893999999940862,1.0,41.0,61.0,mov,2300.0,1,0,1,0
0.985899999994086,1.0,41.0,62.0,or,2300.0,1,1,0,0
1.0598000000000465,1.0,41.0,63.0,mov,2300.0,0,1,1,0
0.834599999987986,1.0,41.0,64.0,mov,2300.0,0,0,1,1
0.9068999999999068,-1.0,41.0,65.0,or,2300.0,0,1,0,0
1.0953999999822115,1.0,41.0,66.0,mov,2300.0,0,1,0,0
1.617099999987986,1.0,41.0,67.0,or,2300.0,0,1,1,1
0.9925,1.0,41.0,68.0,or,2300.0,1,0,1,0
0.8863999999999068,1.0,41.0,69.0,or,2300.0,0,0,1,0
0.9276999999880792,1.0,41.0,70.0,mov,2300.0,1,1,1,0
0.8444999999939464,1.0,41.0,71.0,or,2300.0,1,1,1,1
1.015999999982072,1.0,41.0,72.0,mov,2300.0,1,1,0,0
1.264100000000093,1.0,41.0,73.0,or,2300.0,0,1,1,0
0.809099999987986,1.0,41.0,74.0,or,2300.0,1,0,1,0
0.9512999999821186,1.0,41.0,75.0,or,2300.0,1,0,0,0
1.017399999994086,1.0,41.0,76.0,or,2300.0,0,0,0,1
1.1191999999941329,1.0,41.0,77.0,or,2300.0,0,0,1,1
0.8193000000000465,1.0,41.0,78.0,or,2300.0,1,0,0,1
1.084399999994086,1.0,41.0,79.0,mov,2300.0,1,1,0,0
0.9666999999880792,1.0,41.0,0.0,mov,2300.0,1,0,1,1
1.226799999993993,1.0,41.0,1.0,or,2300.0,0,1,0,1
0.8329999999939464,1.0,41.0,2.0,or,2300.0,1,0,0,1
1.116899999999907,1.0,41.0,3.0,or,2300.0,0,0,1,0
0.977599999987986,1.0,41.0,4.0,or,2300.0,0,0,0,0
1.1693999999822118,1.0,41.0,5.0,mov,2300.0,0,1,0,0
1.344099999987986,1.0,41.0,6.0,or,2300.0,0,1,0,0
1.2253000000000502,1.0,41.0,7.0,mov,2300.0,0,1,1,1
1.0644999999881293,1.0,41.0,8.0,mov,2300.0,0,0,1,1
1.2439999999881293,1.0,41.0,9.0,or,2300.0,0,1,1,1
0.8851999999999535,1.0,41.0,10.0,or,2300.0,1,0,0,1
0.8694999999762513,1.0,41.0,11.0,mov,2300.0,1,1,0,0
0.9297999999821186,1.0,41.0,12.0,mov,2300.0,1,0,0,0
1.2583999999880324,1.0,41.0,13.0,mov,2300.0,0,0,0,1
0.9828999999822118,1.0,41.0,14.0,or,2300.0,1,1,0,1
1.052599999987986,1.0,41.0,15.0,mov,2300.0,0,1,0,1
0.8969999999939464,1.0,41.0,16.0,mov,2300.0,1,0,0,1
1.3173999999822117,1.0,41.0,17.0,mov,2300.0,0,0,1,0
0.7690999999821652,1.0,41.0,18.0,mov,2300.0,0,0,0,0
0.7866999999762047,1.0,41.0,19.0,mov,2300.0,1,0,0,1
0.8789999999939464,1.0,41.0,20.0,mov,2300.0,1,0,0,0
1.232999999982072,1.0,41.0,21.0,mov,2300.0,0,0,0,1
0.8412999999821186,1.0,41.0,22.0,mov,2300.0,1,0,0,1
0.8293999999880325,1.0,41.0,23.0,mov,2300.0,0,0,0,1
0.7360999999940395,1.0,41.0,24.0,mov,2300.0,1,0,1,0
1.473799999976065,1.0,41.0,25.0,or,2300.0,0,1,1,0
0.7757999999821186,1.0,41.0,26.0,or,2300.0,0,0,0,0
1.131799999976065,1.0,41.0,27.0,mov,2300.0,0,1,1,1
1.742999999982072,1.0,41.0,28.0,or,2300.0,0,1,1,1
0.8210999999940395,1.0,41.0,29.0,or,2300.0,1,0,1,0
0.9030999999940396,1.0,41.0,30.0,mov,2300.0,0,1,0,1
0.9955,1.0,41.0,31.0,or,2300.0,0,1,0,0
0.8893999999999214,1.0,41.0,32.0,or,2300.0,0,0,1,1
1.1720999999761117,1.0,41.0,33.0,or,2300.0,0,0,1,1
0.9084999999881256,1.0,41.0,34.0,mov,2300.0,1,1,1,0
1.102999999993961,1.0,41.0,35.0,or,2300.0,0,1,0,1
1.135999999993961,1.0,41.0,36.0,mov,2300.0,1,1,1,0
1.0095999999761116,1.0,41.0,37.0,mov,2300.0,1,0,1,1
0.969799999993993,1.0,41.0,38.0,mov,2300.0,1,0,0,0
0.8200999999940395,1.0,41.0,39.0,mov,2300.0,1,0,1,1
0.85769999998204,1.0,41.0,40.0,or,2300.0,1,1,0,0
1.050699999988079,1.0,41.0,41.0,or,2300.0,1,0,1,1
0.9131999999999534,1.0,41.0,42.0,or,2300.0,0,0,1,0
0.8559999999762368,1.0,41.0,43.0,or,2300.0,1,0,1,0
0.9418999999880324,1.0,41.0,44.0,or,2300.0,1,0,1,1
0.8669999999762367,1.0,41.0,45.0,mov,2300.0,1,1,1,1
1.421999999982072,1.0,41.0,46.0,mov,2300.0,0,0,1,0
1.0573999999822117,1.0,41.0,47.0,or,2300.0,1,1,1,0
1.047199999988079,1.0,41.0,48.0,mov,2300.0,1,1,1,1
1.2997999999939929,1.0,41.0,49.0,or,2300.0,1,1,1,1
1.109999999982072,1.0,41.0,50.0,or,2300.0,1,0,0,0
0.9491999999762047,1.0,41.0,51.0,or,2300.0,1,0,0,0
1.2671999999941326,1.0,41.0,52.0,mov,2300.0,0,1,1,0
0.913399999994086,1.0,41.0,53.0,mov,2300.0,1,0,0,1
1.017299999976065,1.0,41.0,54.0,or,2300.0,1,1,0,0
1.1482999999881722,1.0,41.0,55.0,mov,2300.0,0,1,1,0
0.8800999999761115,1.0,41.0,56.0,mov,2300.0,1,0,1,0
1.1754999999762512,1.0,41.0,57.0,mov,2300.0,0,0,1,0
1.0459999999881255,1.0,41.0,58.0,or,2300.0,1,1,1,0
1.5960999999821652,1.0,41.0,59.0,or,2300.0,0,0,1,0
0.9159999999939464,1.0,41.0,60.0,or,2300.0,0,0,1,1
1.0725999999940394,1.0,41.0,61.0,mov,2300.0,1,1,1,0
0.7381999999880791,1.0,41.0,62.0,mov,2300.0,1,0,1,1
1.2530999999821653,1.0,41.0,63.0,mov,2300.0,0,0,0,1
1.2421999999762048,1.0,41.0,64.0,mov,2300.0,0,0,1,1
1.2067999999881722,1.0,41.0,65.0,or,2300.0,0,1,1,1
0.8583999999940861,1.0,41.0,66.0,mov,2300.0,1,1,0,1
1.1969999999939465,1.0,41.0,67.0,or,2300.0,0,1,0,1
0.9753999999880324,1.0,41.0,68.0,or,2300.0,0,0,1,1
0.9182999999821186,1.0,41.0,69.0,mov,2300.0,0,1,0,0
0.9122999999881722,1.0,41.0,70.0,mov,2300.0,0,0,0,0
0.8726999999820255,1.0,41.0,71.0,or,2300.0,1,1,1,0
0.8697999999881723,1.0,41.0,72.0,or,2300.0,1,0,0,0
1.044799999976065,1.0,41.0,73.0,or,2300.0,1,0,0,0
1.292299999993993,1.0,41.0,74.0,or,2300.0,0,0,0,1
0.895099999987986,1.0,41.0,75.0,or,2300.0,1,0,1,0
0.7915999999940395,1.0,41.0,76.0,or,2300.0,1,0,1,1
0.8973000000000466,1.0,41.0,77.0,or,2300.0,1,0,1,1
1.269600000000093,1.0,41.0,78.0,mov,2300.0,0,1,1,0
0.8869999999762512,1.0,41.0,79.0,or,2300.0,1,1,0,1
1.855999999982072,1.0,41.0,0.0,or,2300.0,1,0,1,1
1.028299999993993,1.0,41.0,1.0,mov,2300.0,1,1,0,0
0.9493999999822116,1.0,41.0,2.0,mov,2300.0,1,0,0,0
0.8599999999762513,1.0,41.0,3.0,or,2300.0,1,1,0,0
1.0697999999939911,1.0,41.0,4.0,mov,2300.0,1,1,0,0
1.188799999993991,1.0,41.0,5.0,or,2300.0,0,1,1,0
1.375299999993993,1.0,41.0,6.0,mov,2300.0,0,1,1,1
0.7563999999822117,1.0,41.0,7.0,mov,2300.0,1,0,1,0
0.8757999999821187,1.0,41.0,8.0,mov,2300.0,0,0,0,1
1.0629999999881292,1.0,41.0,9.0,or,2300.0,0,1,0,0
1.094600000000093,1.0,41.0,10.0,mov,2300.0,0,1,0,0
0.9298000000000504,1.0,41.0,11.0,mov,2300.0,0,0,1,1
1.7748999999880326,1.0,41.0,12.0,or,2300.0,0,1,0,0
0.7549999999939464,1.0,41.0,13.0,mov,2300.0,1,1,1,0
0.8405999999940396,1.0,41.0,14.0,mov,2300.0,0,0,0,1
1.003299999976065,1.0,41.0,15.0,or,2300.0,0,1,1,1
0.7582999999881722,1.0,41.0,16.0,or,2300.0,0,0,1,1
0.9530999999940396,1.0,41.0,17.0,or,2300.0,0,0,1,1
1.1233000000000466,1.0,41.0,18.0,or,2300.0,1,0,0,1
0.7934999999881256,1.0,41.0,19.0,or,2300.0,1,0,1,1
0.7499999999939464,1.0,41.0,20.0,or,2300.0,1,0,1,1
0.8048999999999069,1.0,41.0,21.0,or,2300.0,1,0,0,0
0.7394999999881257,1.0,41.0,22.0,or,2300.0,1,0,1,1
0.8913999999880325,1.0,41.0,23.0,or,2300.0,0,0,0,1
0.7988999999940861,1.0,41.0,24.0,or,2300.0,1,0,0,1
1.0841999999999534,1.0,41.0,25.0,mov,2300.0,0,1,1,0
1.4249999999881255,1.0,41.0,26.0,or,2300.0,1,1,0,1
1.286399999999907,1.0,41.0,27.0,mov,2300.0,0,1,1,0
0.8926999999999534,1.0,41.0,28.0,mov,2300.0,1,0,1,0
0.8093999999822118,1.0,41.0,29.0,mov,2300.0,1,0,1,1
1.2867999999821187,1.0,41.0,30.0,or,2300.0,0,1,1,0
1.3897999999881576,1.0,41.0,31.0,mov,2300.0,1,1,1,0
1.3845999999940397,1.0,41.0,32.0,mov,2300.0,0,0,1,0
0.8153999999999214,1.0,41.0,33.0,mov,2300.0,1,0,0,1
1.0935999999880004,1.0,41.0,34.0,or,2300.0,1,1,0,0
0.9029999999881256,1.0,41.0,35.0,or,2300.0,1,0,0,0
0.8104999999762367,1.0,41.0,36.0,mov,2300.0,1,1,1,1
1.5857999999760797,1.0,41.0,37.0,or,2300.0,0,1,0,1
0.823299999993993,1.0,41.0,38.0,mov,2300.0,1,1,1,0
0.7926000000000786,1.0,41.0,39.0,mov,2300.0,1,0,1,1
0.9162999999939928,1.0,41.0,40.0,mov,2300.0,1,0,0,0
0.9174999999939608,1.0,41.0,41.0,or,2300.0,1,1,0,0
1.0433999999999215,1.0,41.0,42.0,mov,2300.0,0,1,0,1
0.9766999999941182,1.0,41.0,43.0,mov,2300.0,0,0,1,1
1.7373000000000465,1.0,41.0,44.0,or,2300.0,0,1,0,0
0.709,1.0,41.0,45.0,or,2300.0,0,0,1,1
1.0056999999999534,1.0,41.0,46.0,or,2300.0,1,0,1,0
0.9558999999761582,1.0,41.0,47.0,mov,2300.0,0,1,0,1
0.9767999999821186,1.0,41.0,48.0,mov,2300.0,0,0,0,0
1.0671999999941326,1.0,41.0,49.0,mov,2300.0,0,0,1,1
0.946999999982072,1.0,41.0,50.0,or,2300.0,1,1,1,0
1.2044999999762511,1.0,41.0,51.0,or,2300.0,0,0,1,0
0.977399999976158,1.0,41.0,52.0,mov,2300.0,1,1,0,1
1.2164999999762514,1.0,41.0,53.0,or,2300.0,0,1,0,1
0.917099999987986,1.0,41.0,54.0,or,2300.0,1,0,0,1
0.922299999976065,1.0,41.0,55.0,mov,2300.0,1,1,1,1
0.9372999999821188,1.0,41.0,56.0,or,2300.0,1,1,1,1
1.434799999976065,1.0,41.0,57.0,mov,2300.0,0,1,1,0
0.939899999976158,1.0,41.0,58.0,or,2300.0,0,1,1,1
0.8379999999939464,1.0,41.0,59.0,or,2300.0,0,0,0,0
0.9248999999880324,1.0,41.0,60.0,mov,2300.0,1,1,0,1
0.8632999999881722,1.0,41.0,61.0,mov,2300.0,1,0,0,0
1.9442999999821189,1.0,41.0,62.0,mov,2300.0,0,0,1,0
1.0500999999761116,1.0,41.0,63.0,mov,2300.0,0,0,1,1
1.2265999999761117,1.0,41.0,64.0,or,2300.0,0,1,1,1
0.9473000000000464,1.0,41.0,65.0,mov,2300.0,0,1,1,1
1.1698999999880324,1.0,41.0,66.0,or,2300.0,1,1,1,0
0.9346999999880792,1.0,41.0,67.0,mov,2300.0,0,1,0,1
0.8555999999821652,1.0,41.0,68.0,mov,2300.0,0,0,0,0
1.6643999999999068,1.0,41.0,69.0,or,2300.0,0,1,1,1
0.922799999993993,1.0,41.0,70.0,mov,2300.0,0,1,1,1
1.273499999982072,1.0,41.0,71.0,or,2300.0,1,1,0,1
1.409999999982072,1.0,41.0,72.0,or,2300.0,0,0,1,0
0.9885999999940396,1.0,41.0,73.0,or,2300.0,0,0,1,1
0.8856999999762047,1.0,41.0,74.0,or,2300.0,1,0,0,1
0.9057999999821186,1.0,41.0,75.0,mov,2300.0,0,1,1,0
0.9879999999762512,1.0,41.0,76.0,mov,2300.0,0,0,0,0
1.1003999999880325,1.0,41.0,77.0,or,2300.0,0,1,0,0
1.0842999999821186,1.0,41.0,78.0,mov,2300.0,0,1,0,0
0.8921000000000932,1.0,41.0,79.0,mov,2300.0,0,0,0,0
1.3944000000953674,1.0,44.0,0.0,or,2970.0,0,1,0,0
1.068200000095414,1.0,44.0,1.0,mov,2970.0,1,1,1,0
0.7164000000000232,1.0,44.0,2.0,mov,2970.0,1,0,1,1
0.8202999999523163,1.0,44.0,3.0,or,2970.0,0,1,1,0
0.8014000000476353,1.0,44.0,4.0,mov,2970.0,0,1,1,1
1.691100000047707,1.0,44.0,5.0,or,2970.0,1,1,1,0
1.6532000000476836,1.0,44.0,6.0,or,2970.0,1,0,1,1
0.7998000000953908,1.0,44.0,7.0,mov,2970.0,1,1,0,0
0.6952999999523163,1.0,44.0,8.0,mov,2970.0,1,0,0,0
1.0110999999523629,1.0,44.0,9.0,or,2970.0,0,1,0,1
0.7861999999523396,1.0,44.0,10.0,or,2970.0,1,0,1,0
0.868799999952309,1.0,44.0,11.0,or,2970.0,0,0,1,0
0.7828000000000466,1.0,44.0,12.0,mov,2970.0,1,1,0,1
1.046299999952309,1.0,44.0,13.0,mov,2970.0,0,0,1,0
0.7243000000476605,1.0,44.0,14.0,or,2970.0,1,1,0,1
0.7464000000953601,1.0,44.0,15.0,or,2970.0,1,0,0,0
0.862200000095414,1.0,44.0,16.0,or,2970.0,0,0,0,1
0.7650000000477303,1.0,44.0,17.0,mov,2970.0,1,1,1,0
0.7219000000476371,1.0,44.0,18.0,or,2970.0,1,1,1,1
1.138600000095321,1.0,44.0,19.0,mov,2970.0,0,1,0,1
1.178900000047637,1.0,44.0,20.0,mov,2970.0,0,0,0,0
0.8109000000000233,-1.0,44.0,21.0,mov,2970.0,1,0,0,1
0.8177000000476837,1.0,44.0,22.0,mov,2970.0,1,0,1,1
0.7906000000953208,1.0,44.0,23.0,mov,2970.0,0,0,0,1
0.8881999999523396,1.0,44.0,24.0,or,2970.0,1,1,1,0
0.7400000000953442,1.0,44.0,25.0,or,2970.0,0,0,1,0
0.7599000000953674,1.0,44.0,26.0,mov,2970.0,0,1,1,1
0.8059000000953674,1.0,44.0,27.0,or,2970.0,1,1,0,1
0.8668000001430046,1.0,44.0,28.0,mov,2970.0,0,1,0,1
0.6551999999523396,1.0,44.0,29.0,mov,2970.0,1,0,0,1
0.9950999999999768,1.0,44.0,30.0,or,2970.0,0,1,1,0
0.8509000000953675,1.0,44.0,31.0,or,2970.0,0,0,0,0
0.9199000000476372,1.0,44.0,32.0,or,2970.0,0,0,1,1
0.9033000000953908,1.0,44.0,33.0,or,2970.0,1,0,1,0
0.945800000000032,1.0,44.0,34.0,mov,2970.0,0,1,0,1
1.1034000000476372,1.0,44.0,35.0,mov,2970.0,1,0,1,0
1.1429000000000231,1.0,44.0,36.0,or,2970.0,0,1,0,1
0.7895000000953442,1.0,44.0,37.0,or,2970.0,0,0,0,0
0.8816999999523396,1.0,44.0,38.0,mov,2970.0,1,1,0,1
1.0995999999999768,1.0,44.0,39.0,mov,2970.0,0,0,1,0
0.6769000000953674,1.0,44.0,40.0,mov,2970.0,1,0,1,0
0.7489000000953674,1.0,44.0,41.0,mov,2970.0,0,0,0,1
0.8152999999523163,1.0,44.0,42.0,or,2970.0,1,1,1,0
0.7605000001430744,1.0,44.0,43.0,mov,2970.0,1,1,1,1
0.8601999999523395,1.0,44.0,44.0,or,2970.0,1,1,1,1
0.6756000001430511,1.0,44.0,45.0,mov,2970.0,1,1,1,1
0.8737000001430278,1.0,44.0,46.0,or,2970.0,0,1,1,0
0.7685,1.0,44.0,47.0,mov,2970.0,0,1,0,0
1.075200000143028,1.0,44.0,48.0,or,2970.0,0,1,1,1
0.7299000000953675,1.0,44.0,49.0,mov,2970.0,1,1,1,0
0.7523000000953907,1.0,44.0,50.0,or,2970.0,1,1,1,1
0.8141000001430512,1.0,44.0,51.0,or,2970.0,0,0,0,1
0.7424999999522697,1.0,44.0,52.0,or,2970.0,0,0,1,1
1.0427000000476838,1.0,44.0,53.0,mov,2970.0,0,1,1,1
0.568200000095414,1.0,44.0,54.0,mov,2970.0,1,0,1,0
0.5536999999523395,1.0,44.0,55.0,mov,2970.0,0,0,0,1
0.9513000000000466,1.0,44.0,56.0,or,2970.0,0,1,1,1
0.9746000000000058,1.0,44.0,57.0,mov,2970.0,0,1,1,1
0.7798000000000466,1.0,44.0,58.0,mov,2970.0,0,0,1,1
0.7240000000953732,1.0,44.0,59.0,mov,2970.0,0,0,1,1
0.7154000000476372,1.0,44.0,60.0,mov,2970.0,1,0,0,1
0.7136999999999535,1.0,44.0,61.0,mov,2970.0,0,0,1,0
